"Time (s)","Gyroscope x (rad/s)","Gyroscope y (rad/s)","Gyroscope z (rad/s)"
1.793069700E-2,3.054323897E-4,-4.581485991E-4,7.635809598E-4
2.005824900E-2,-9.162971983E-4,-4.581485991E-4,1.985310577E-3
2.218580100E-2,1.527161920E-3,-4.581485991E-4,-4.581485991E-4
2.431335300E-2,-9.162971983E-4,-4.581485991E-4,7.635809598E-4
2.644090500E-2,-9.162971983E-4,-1.679878100E-3,7.635809598E-4
2.856845700E-2,3.054323897E-4,-1.679878100E-3,7.635809598E-4
3.069606100E-2,-9.162971983E-4,-4.581485991E-4,-4.581485991E-4
3.282361400E-2,3.054323897E-4,7.635809598E-4,7.635809598E-4
3.495116600E-2,1.527161920E-3,7.635809598E-4,-4.581485991E-4
3.707871800E-2,-9.162971983E-4,7.635809598E-4,-4.581485991E-4
3.920627000E-2,-9.162971983E-4,-1.679878100E-3,7.635809598E-4
4.133382200E-2,1.527161920E-3,-4.581485991E-4,-4.581485991E-4
4.346142600E-2,-9.162971983E-4,-4.581485991E-4,-4.581485991E-4
4.558897800E-2,1.527161920E-3,-4.581485991E-4,-4.581485991E-4
4.771653000E-2,3.054323897E-4,7.635809598E-4,-4.581485991E-4
4.984408200E-2,3.054323897E-4,7.635809598E-4,-1.679878100E-3
5.197163400E-2,3.054323897E-4,-4.581485991E-4,-4.581485991E-4
5.409918600E-2,-9.162971983E-4,-4.581485991E-4,7.635809598E-4
5.622679100E-2,-9.162971983E-4,-4.581485991E-4,-4.581485991E-4
5.835434300E-2,3.054323897E-4,-4.581485991E-4,-4.581485991E-4
6.048189500E-2,3.054323897E-4,-1.679878100E-3,-4.581485991E-4
6.260944700E-2,2.748891478E-3,-1.679878100E-3,-4.581485991E-4
6.473699900E-2,1.527161920E-3,-4.581485991E-4,-4.581485991E-4
6.686455100E-2,-9.162971983E-4,-4.581485991E-4,-4.581485991E-4
6.899215500E-2,-9.162971983E-4,-4.581485991E-4,7.635809598E-4
7.111970700E-2,3.054323897E-4,-4.581485991E-4,7.635809598E-4
7.324725900E-2,3.054323897E-4,-1.679878100E-3,-4.581485991E-4
7.537481100E-2,3.054323897E-4,1.985310577E-3,-4.581485991E-4
7.750236400E-2,3.054323897E-4,-4.581485991E-4,-4.581485991E-4
7.962991600E-2,1.527161920E-3,-4.581485991E-4,-4.581485991E-4
8.175752000E-2,1.527161920E-3,7.635809598E-4,7.635809598E-4
8.388507200E-2,1.527161920E-3,-1.679878100E-3,-4.581485991E-4
8.601262400E-2,1.527161920E-3,-1.679878100E-3,-4.581485991E-4
8.814017600E-2,3.054323897E-4,-1.679878100E-3,1.985310577E-3
9.026772800E-2,-9.162971983E-4,7.635809598E-4,-4.581485991E-4
9.239528000E-2,-9.162971983E-4,7.635809598E-4,-4.581485991E-4
9.452283200E-2,3.054323897E-4,-4.581485991E-4,-1.679878100E-3
9.665043600E-2,3.054323897E-4,-4.581485991E-4,7.635809598E-4
9.877798900E-2,1.527161920E-3,-1.679878100E-3,-4.581485991E-4
1.009055410E-1,-9.162971983E-4,7.635809598E-4,7.635809598E-4
1.030330930E-1,1.527161920E-3,7.635809598E-4,-1.679878100E-3
1.051606450E-1,1.527161920E-3,-4.581485991E-4,-4.581485991E-4
1.072882490E-1,-9.162971983E-4,-1.679878100E-3,7.635809598E-4
1.094158010E-1,3.054323897E-4,-4.581485991E-4,-4.581485991E-4
1.115433530E-1,3.054323897E-4,-4.581485991E-4,-4.581485991E-4
1.136709050E-1,3.054323897E-4,-4.581485991E-4,-4.581485991E-4
1.157984570E-1,1.527161920E-3,-4.581485991E-4,-4.581485991E-4
1.179260090E-1,1.527161920E-3,7.635809598E-4,7.635809598E-4
1.200536140E-1,3.054323897E-4,-4.581485991E-4,-4.581485991E-4
1.221811660E-1,1.527161920E-3,7.635809598E-4,-4.581485991E-4
1.243087180E-1,-9.162971983E-4,-4.581485991E-4,7.635809598E-4
1.264362700E-1,3.054323897E-4,-4.581485991E-4,7.635809598E-4
1.285638220E-1,1.527161920E-3,7.635809598E-4,7.635809598E-4
1.306913740E-1,3.054323897E-4,7.635809598E-4,-4.581485991E-4
1.328189260E-1,3.054323897E-4,-1.679878100E-3,-4.581485991E-4
1.349465300E-1,1.527161920E-3,-4.581485991E-4,-1.679878100E-3
1.370740820E-1,3.054323897E-4,7.635809598E-4,-1.679878100E-3
1.392016340E-1,2.748891478E-3,7.635809598E-4,-4.581485991E-4
1.413291860E-1,1.527161920E-3,7.635809598E-4,-4.581485991E-4
1.434567390E-1,3.054323897E-4,7.635809598E-4,7.635809598E-4
1.455842910E-1,3.054323897E-4,-4.581485991E-4,-4.581485991E-4
1.477118950E-1,1.527161920E-3,7.635809598E-4,-4.581485991E-4
1.498394470E-1,1.527161920E-3,-1.679878100E-3,-4.581485991E-4
1.519669990E-1,-9.162971983E-4,7.635809598E-4,-4.581485991E-4
1.540945510E-1,-9.162971983E-4,1.985310577E-3,-4.581485991E-4
1.562221030E-1,-9.162971983E-4,1.985310577E-3,-4.581485991E-4
1.583496550E-1,1.527161920E-3,-4.581485991E-4,-4.581485991E-4
1.604772070E-1,3.054323897E-4,7.635809598E-4,-4.581485991E-4
1.626048110E-1,3.054323897E-4,7.635809598E-4,-4.581485991E-4
1.647323640E-1,3.054323897E-4,-1.679878100E-3,-1.679878100E-3
1.668599160E-1,-9.162971983E-4,-4.581485991E-4,7.635809598E-4
1.689874680E-1,1.527161920E-3,-1.679878100E-3,-1.679878100E-3
1.711150200E-1,1.527161920E-3,-4.581485991E-4,-4.581485991E-4
1.732426240E-1,3.054323897E-4,-4.581485991E-4,7.635809598E-4
1.753701760E-1,3.054323897E-4,-4.581485991E-4,-1.679878100E-3
1.774977280E-1,1.527161920E-3,7.635809598E-4,-4.581485991E-4
1.796252800E-1,3.054323897E-4,-4.581485991E-4,-4.581485991E-4
1.817528320E-1,3.054323897E-4,-4.581485991E-4,-4.581485991E-4
1.838803840E-1,3.054323897E-4,-4.581485991E-4,-4.581485991E-4
1.860079890E-1,1.527161920E-3,-4.581485991E-4,-4.581485991E-4
1.881354890E-1,1.527161920E-3,-4.581485991E-4,7.635809598E-4
1.902630930E-1,3.054323897E-4,-2.901607659E-3,7.635809598E-4
1.923906450E-1,3.054323897E-4,-4.581485991E-4,7.635809598E-4
1.945181970E-1,1.527161920E-3,-4.581485991E-4,-4.581485991E-4
1.966457490E-1,3.054323897E-4,7.635809598E-4,7.635809598E-4
1.987733010E-1,3.054323897E-4,7.635809598E-4,7.635809598E-4
2.009009050E-1,-9.162971983E-4,-4.581485991E-4,7.635809598E-4
2.030284570E-1,-9.162971983E-4,-4.581485991E-4,-1.679878100E-3
2.051560090E-1,-9.162971983E-4,7.635809598E-4,-4.581485991E-4
2.072835610E-1,1.527161920E-3,1.985310577E-3,7.635809598E-4
2.094111140E-1,3.970621154E-3,-4.581485991E-4,-4.581485991E-4
2.115387180E-1,3.054323897E-4,-4.581485991E-4,-4.581485991E-4
2.136662700E-1,-9.162971983E-4,-1.679878100E-3,-1.679878100E-3
2.157938220E-1,3.054323897E-4,7.635809598E-4,-4.581485991E-4
2.179213740E-1,1.527161920E-3,-4.581485991E-4,-1.679878100E-3
2.200489260E-1,3.054323897E-4,-4.581485991E-4,7.635809598E-4
2.221764780E-1,3.054323897E-4,-1.679878100E-3,7.635809598E-4
2.243040300E-1,3.054323897E-4,-4.581485991E-4,-4.581485991E-4
2.264316340E-1,3.054323897E-4,-4.581485991E-4,-1.679878100E-3
2.285591860E-1,3.970621154E-3,-1.679878100E-3,-4.581485991E-4
2.306867390E-1,3.054323897E-4,-4.581485991E-4,7.635809598E-4
2.328142910E-1,3.054323897E-4,-4.581485991E-4,7.635809598E-4
2.349418430E-1,3.054323897E-4,7.635809598E-4,-4.581485991E-4
2.370693950E-1,3.054323897E-4,7.635809598E-4,7.635809598E-4
2.391969990E-1,1.527161920E-3,-4.581485991E-4,-4.581485991E-4
2.413245510E-1,3.054323897E-4,-4.581485991E-4,7.635809598E-4
2.434521030E-1,3.054323897E-4,-4.581485991E-4,-4.581485991E-4
2.455796550E-1,3.054323897E-4,7.635809598E-4,-1.679878100E-3
2.477072070E-1,3.054323897E-4,-1.679878100E-3,-4.581485991E-4
2.498347590E-1,1.527161920E-3,-4.581485991E-4,-4.581485991E-4
2.519623640E-1,2.748891478E-3,7.635809598E-4,7.635809598E-4
2.540899160E-1,3.054323897E-4,-4.581485991E-4,7.635809598E-4
2.562174680E-1,3.054323897E-4,-4.581485991E-4,-4.581485991E-4
2.583450200E-1,-9.162971983E-4,-4.581485991E-4,-4.581485991E-4
2.604725720E-1,3.054323897E-4,-4.581485991E-4,7.635809598E-4
2.626001240E-1,-9.162971983E-4,7.635809598E-4,7.635809598E-4
2.647277280E-1,-9.162971983E-4,7.635809598E-4,-4.581485991E-4
2.668552800E-1,-9.162971983E-4,1.985310577E-3,-4.581485991E-4
2.689828320E-1,-9.162971983E-4,7.635809598E-4,-4.581485991E-4
2.711103840E-1,-9.162971983E-4,-4.581485991E-4,7.635809598E-4
2.732379360E-1,3.054323897E-4,7.635809598E-4,-4.581485991E-4
2.753654890E-1,-9.162971983E-4,7.635809598E-4,-4.581485991E-4
2.774930930E-1,3.054323897E-4,-4.581485991E-4,-4.581485991E-4
2.796206450E-1,-9.162971983E-4,-1.679878100E-3,7.635809598E-4
2.817481970E-1,-2.138026757E-3,-4.581485991E-4,-4.581485991E-4
2.838757490E-1,3.054323897E-4,7.635809598E-4,-4.581485991E-4
2.860033010E-1,3.054323897E-4,-4.581485991E-4,7.635809598E-4
2.881308530E-1,3.054323897E-4,-4.581485991E-4,1.985310577E-3
2.902584570E-1,3.054323897E-4,7.635809598E-4,-4.581485991E-4
2.923860090E-1,3.054323897E-4,-1.679878100E-3,7.635809598E-4
2.945135610E-1,3.054323897E-4,7.635809598E-4,-1.679878100E-3
2.966411140E-1,-9.162971983E-4,1.985310577E-3,-4.581485991E-4
2.987686660E-1,3.054323897E-4,7.635809598E-4,7.635809598E-4
3.008962180E-1,3.054323897E-4,-4.581485991E-4,-1.679878100E-3
3.030238220E-1,-9.162971983E-4,-4.581485991E-4,-4.581485991E-4
3.051513740E-1,1.527161920E-3,-1.679878100E-3,-4.581485991E-4
3.072789260E-1,-9.162971983E-4,-4.581485991E-4,-4.581485991E-4
3.094064780E-1,3.054323897E-4,-1.679878100E-3,-1.679878100E-3
3.115340300E-1,-2.138026757E-3,-4.581485991E-4,7.635809598E-4
3.136615820E-1,1.527161920E-3,7.635809598E-4,-4.581485991E-4
3.157891340E-1,-9.162971983E-4,7.635809598E-4,7.635809598E-4
3.179167390E-1,3.054323897E-4,7.635809598E-4,7.635809598E-4
3.200442910E-1,1.527161920E-3,-4.581485991E-4,-4.581485991E-4
3.221718430E-1,-9.162971983E-4,7.635809598E-4,-4.581485991E-4
3.242993950E-1,3.054323897E-4,7.635809598E-4,7.635809598E-4
3.264269470E-1,3.054323897E-4,-4.581485991E-4,7.635809598E-4
3.285544990E-1,-9.162971983E-4,-1.679878100E-3,7.635809598E-4
3.306821030E-1,3.054323897E-4,-4.581485991E-4,7.635809598E-4
3.328096550E-1,1.527161920E-3,-1.679878100E-3,-4.581485991E-4
3.349372070E-1,-9.162971983E-4,-4.581485991E-4,-4.581485991E-4
3.370647590E-1,1.527161920E-3,-4.581485991E-4,7.635809598E-4
3.391923110E-1,-9.162971983E-4,7.635809598E-4,7.635809598E-4
3.413199160E-1,3.054323897E-4,7.635809598E-4,7.635809598E-4
3.434474680E-1,-9.162971983E-4,7.635809598E-4,7.635809598E-4
3.455750200E-1,3.054323897E-4,-4.581485991E-4,7.635809598E-4
3.477025720E-1,-9.162971983E-4,-4.581485991E-4,-4.581485991E-4
3.498301240E-1,3.054323897E-4,-4.581485991E-4,-1.679878100E-3
3.519576760E-1,3.054323897E-4,-4.581485991E-4,-4.581485991E-4
3.540852280E-1,3.054323897E-4,-4.581485991E-4,7.635809598E-4
3.562128320E-1,1.527161920E-3,1.985310577E-3,7.635809598E-4
3.583403840E-1,-9.162971983E-4,7.635809598E-4,1.985310577E-3
3.604679360E-1,1.527161920E-3,-4.581485991E-4,7.635809598E-4
3.625954890E-1,-9.162971983E-4,-4.581485991E-4,-4.581485991E-4
3.647230410E-1,-9.162971983E-4,-1.679878100E-3,-4.581485991E-4
3.668506450E-1,3.054323897E-4,-1.679878100E-3,-4.581485991E-4
3.689781970E-1,3.054323897E-4,-4.581485991E-4,-4.581485991E-4
3.711057490E-1,-9.162971983E-4,7.635809598E-4,7.635809598E-4
3.732333010E-1,-9.162971983E-4,7.635809598E-4,-4.581485991E-4
3.753608530E-1,-2.138026757E-3,-4.581485991E-4,-4.581485991E-4
3.774884050E-1,-9.162971983E-4,7.635809598E-4,7.635809598E-4
3.796160090E-1,-2.138026757E-3,7.635809598E-4,-4.581485991E-4
3.817435610E-1,-2.138026757E-3,7.635809598E-4,7.635809598E-4
3.838711140E-1,-9.162971983E-4,-4.581485991E-4,7.635809598E-4
3.859986660E-1,-9.162971983E-4,-1.679878100E-3,7.635809598E-4
3.881262180E-1,-2.138026757E-3,-4.581485991E-4,7.635809598E-4
3.902537700E-1,-2.138026757E-3,-4.581485991E-4,-4.581485991E-4
3.923813740E-1,-2.138026757E-3,7.635809598E-4,7.635809598E-4
3.945089260E-1,-9.162971983E-4,-1.679878100E-3,-4.581485991E-4
3.966364780E-1,-9.162971983E-4,-1.679878100E-3,-1.679878100E-3
3.987640300E-1,-9.162971983E-4,-4.581485991E-4,-1.679878100E-3
4.008915820E-1,-2.138026757E-3,-4.581485991E-4,-4.581485991E-4
4.030191340E-1,-2.138026757E-3,-4.581485991E-4,7.635809598E-4
4.051466860E-1,-2.138026757E-3,-4.581485991E-4,-4.581485991E-4
4.072742910E-1,-3.359756200E-3,7.635809598E-4,7.635809598E-4
4.094018430E-1,-9.162971983E-4,-4.581485991E-4,7.635809598E-4
4.115293950E-1,-2.138026757E-3,7.635809598E-4,7.635809598E-4
4.136569470E-1,-9.162971983E-4,7.635809598E-4,-1.679878100E-3
4.157844990E-1,-2.138026757E-3,7.635809598E-4,7.635809598E-4
4.179120510E-1,-2.138026757E-3,7.635809598E-4,-4.581485991E-4
4.200396550E-1,-3.359756200E-3,-4.581485991E-4,-4.581485991E-4
4.221672070E-1,-2.138026757E-3,-4.581485991E-4,7.635809598E-4
4.242947590E-1,-2.138026757E-3,-1.679878100E-3,-4.581485991E-4
4.264223110E-1,-3.359756200E-3,-1.679878100E-3,7.635809598E-4
4.285498640E-1,-4.581485875E-3,-1.679878100E-3,-4.581485991E-4
4.306774160E-1,-3.359756200E-3,-4.581485991E-4,-4.581485991E-4
4.328050200E-1,-2.138026757E-3,-1.679878100E-3,7.635809598E-4
4.349325720E-1,-3.359756200E-3,-1.679878100E-3,-4.581485991E-4
4.370601240E-1,-2.138026757E-3,-4.581485991E-4,7.635809598E-4
4.391876760E-1,-3.359756200E-3,-4.581485991E-4,7.635809598E-4
4.413152280E-1,-2.138026757E-3,-1.679878100E-3,7.635809598E-4
4.434428320E-1,-3.359756200E-3,7.635809598E-4,1.985310577E-3
4.455703840E-1,-3.359756200E-3,7.635809598E-4,7.635809598E-4
4.476979360E-1,-9.162971983E-4,-4.581485991E-4,-4.581485991E-4
4.498254890E-1,-3.359756200E-3,-4.581485991E-4,-4.581485991E-4
4.519530410E-1,-3.359756200E-3,-4.581485991E-4,1.985310577E-3
4.540805930E-1,-4.581485875E-3,-4.581485991E-4,-4.581485991E-4
4.562081970E-1,-2.138026757E-3,-4.581485991E-4,-4.581485991E-4
4.583357490E-1,-4.581485875E-3,-4.581485991E-4,-4.581485991E-4
4.604633010E-1,-2.138026757E-3,-4.581485991E-4,-1.679878100E-3
4.625908530E-1,-2.138026757E-3,-4.581485991E-4,-4.581485991E-4
4.647184050E-1,-3.359756200E-3,-1.679878100E-3,7.635809598E-4
4.668459570E-1,-3.359756200E-3,-1.679878100E-3,-4.581485991E-4
4.689735610E-1,-3.359756200E-3,-1.679878100E-3,-4.581485991E-4
4.711011140E-1,-2.138026757E-3,7.635809598E-4,-4.581485991E-4
4.732286660E-1,-9.162971983E-4,-4.581485991E-4,-4.581485991E-4
4.753562180E-1,-2.138026757E-3,-4.581485991E-4,7.635809598E-4
4.774837700E-1,-2.138026757E-3,1.985310577E-3,7.635809598E-4
4.796113220E-1,-9.162971983E-4,7.635809598E-4,-4.581485991E-4
4.817389260E-1,-2.138026757E-3,7.635809598E-4,7.635809598E-4
4.838664780E-1,-2.138026757E-3,7.635809598E-4,7.635809598E-4
4.859940300E-1,-9.162971983E-4,-1.679878100E-3,-4.581485991E-4
4.881215820E-1,-3.359756200E-3,-1.679878100E-3,7.635809598E-4
4.902491340E-1,-2.138026757E-3,7.635809598E-4,7.635809598E-4
4.923766860E-1,-2.138026757E-3,-4.581485991E-4,-4.581485991E-4
4.945042910E-1,-9.162971983E-4,-4.581485991E-4,-4.581485991E-4
4.966318430E-1,-3.359756200E-3,-1.679878100E-3,-4.581485991E-4
4.987593950E-1,-3.359756200E-3,-2.901607659E-3,-4.581485991E-4
5.008869470E-1,-9.162971983E-4,-4.581485991E-4,-4.581485991E-4
5.030144990E-1,-2.138026757E-3,-1.679878100E-3,7.635809598E-4
5.051420510E-1,-9.162971983E-4,-4.581485991E-4,-4.581485991E-4
5.072696550E-1,-9.162971983E-4,-4.581485991E-4,7.635809598E-4
5.093972070E-1,-2.138026757E-3,7.635809598E-4,7.635809598E-4
5.115247590E-1,-9.162971983E-4,-4.581485991E-4,7.635809598E-4
5.136523110E-1,-2.138026757E-3,-4.581485991E-4,7.635809598E-4
5.157798640E-1,-2.138026757E-3,-4.581485991E-4,7.635809598E-4
5.179074160E-1,-3.359756200E-3,7.635809598E-4,1.985310577E-3
5.200350200E-1,-2.138026757E-3,-1.679878100E-3,-4.581485991E-4
5.221625720E-1,-2.138026757E-3,-4.581485991E-4,-4.581485991E-4
5.242901240E-1,-9.162971983E-4,7.635809598E-4,7.635809598E-4
5.264176760E-1,-9.162971983E-4,-4.581485991E-4,-1.679878100E-3
5.285452280E-1,-2.138026757E-3,-4.581485991E-4,1.985310577E-3
5.306728320E-1,-9.162971983E-4,7.635809598E-4,7.635809598E-4
5.328003840E-1,-2.138026757E-3,-4.581485991E-4,-4.581485991E-4
5.349279360E-1,-3.359756200E-3,-1.679878100E-3,-4.581485991E-4
5.370554890E-1,-9.162971983E-4,7.635809598E-4,7.635809598E-4
5.391830410E-1,3.054323897E-4,-4.581485991E-4,-4.581485991E-4
5.413105930E-1,-9.162971983E-4,-4.581485991E-4,7.635809598E-4
5.434381450E-1,-9.162971983E-4,7.635809598E-4,7.635809598E-4
5.455657490E-1,-9.162971983E-4,-4.581485991E-4,-4.581485991E-4
5.476933010E-1,-9.162971983E-4,-4.581485991E-4,7.635809598E-4
5.498208530E-1,-2.138026757E-3,-4.581485991E-4,7.635809598E-4
5.519484050E-1,3.054323897E-4,-4.581485991E-4,-4.581485991E-4
5.540759570E-1,-2.138026757E-3,-4.581485991E-4,7.635809598E-4
5.562035610E-1,3.054323897E-4,-1.679878100E-3,-4.581485991E-4
5.583311140E-1,1.527161920E-3,7.635809598E-4,-4.581485991E-4
5.604586660E-1,3.054323897E-4,-4.581485991E-4,-4.581485991E-4
5.625862180E-1,-9.162971983E-4,7.635809598E-4,7.635809598E-4
5.647137700E-1,-9.162971983E-4,7.635809598E-4,-4.581485991E-4
5.668413220E-1,3.054323897E-4,7.635809598E-4,-4.581485991E-4
5.689689260E-1,-9.162971983E-4,-1.679878100E-3,-1.679878100E-3
5.710964780E-1,-9.162971983E-4,-1.679878100E-3,-4.581485991E-4
5.732240300E-1,-9.162971983E-4,7.635809598E-4,7.635809598E-4
5.753515820E-1,3.054323897E-4,-4.581485991E-4,7.635809598E-4
5.774791340E-1,3.054323897E-4,-1.679878100E-3,7.635809598E-4
5.796067390E-1,-2.138026757E-3,7.635809598E-4,7.635809598E-4
5.817342910E-1,-9.162971983E-4,-4.581485991E-4,-4.581485991E-4
5.838618430E-1,3.054323897E-4,7.635809598E-4,7.635809598E-4
5.859893950E-1,3.054323897E-4,-1.679878100E-3,7.635809598E-4
5.881169470E-1,3.054323897E-4,-4.581485991E-4,7.635809598E-4
5.902444990E-1,-9.162971983E-4,-1.679878100E-3,7.635809598E-4
5.923720510E-1,3.054323897E-4,7.635809598E-4,-4.581485991E-4
5.944996550E-1,3.054323897E-4,-4.581485991E-4,7.635809598E-4
5.966272070E-1,-9.162971983E-4,-4.581485991E-4,7.635809598E-4
5.987547590E-1,-9.162971983E-4,-4.581485991E-4,7.635809598E-4
6.008823110E-1,-9.162971983E-4,-1.679878100E-3,-4.581485991E-4
6.030098640E-1,-9.162971983E-4,-4.581485991E-4,7.635809598E-4
6.051374680E-1,3.054323897E-4,-4.581485991E-4,-4.581485991E-4
6.072650200E-1,-9.162971983E-4,-1.679878100E-3,7.635809598E-4
6.093925720E-1,-9.162971983E-4,-4.581485991E-4,7.635809598E-4
6.115201240E-1,3.054323897E-4,-4.581485991E-4,-4.581485991E-4
6.136476760E-1,3.054323897E-4,-4.581485991E-4,-4.581485991E-4
6.157752280E-1,3.054323897E-4,-4.581485991E-4,1.985310577E-3
6.179028320E-1,-9.162971983E-4,-4.581485991E-4,7.635809598E-4
6.200303840E-1,-9.162971983E-4,-1.679878100E-3,7.635809598E-4
6.221579360E-1,-9.162971983E-4,-4.581485991E-4,7.635809598E-4
6.242854890E-1,-9.162971983E-4,7.635809598E-4,-4.581485991E-4
6.264130410E-1,-9.162971983E-4,7.635809598E-4,-4.581485991E-4
6.285406450E-1,-9.162971983E-4,-4.581485991E-4,-4.581485991E-4
6.306681970E-1,3.054323897E-4,-4.581485991E-4,7.635809598E-4
6.327957490E-1,3.054323897E-4,7.635809598E-4,7.635809598E-4
6.349233010E-1,3.054323897E-4,7.635809598E-4,-4.581485991E-4
6.370508530E-1,-9.162971983E-4,-4.581485991E-4,7.635809598E-4
6.391784050E-1,-9.162971983E-4,-1.679878100E-3,1.985310577E-3
6.413060090E-1,3.054323897E-4,-1.679878100E-3,-4.581485991E-4
6.434335610E-1,3.054323897E-4,-4.581485991E-4,-4.581485991E-4
6.455611140E-1,3.054323897E-4,-4.581485991E-4,-4.581485991E-4
6.476886660E-1,1.527161920E-3,7.635809598E-4,7.635809598E-4
6.498162180E-1,-9.162971983E-4,-4.581485991E-4,-4.581485991E-4
6.519438220E-1,3.054323897E-4,-4.581485991E-4,-4.581485991E-4
6.540713740E-1,3.054323897E-4,-4.581485991E-4,-4.581485991E-4
6.561989260E-1,-9.162971983E-4,-4.581485991E-4,-4.581485991E-4
6.583264780E-1,-9.162971983E-4,7.635809598E-4,-4.581485991E-4
6.604540300E-1,-2.138026757E-3,7.635809598E-4,7.635809598E-4
6.625815820E-1,1.527161920E-3,-4.581485991E-4,-4.581485991E-4
6.647091860E-1,-9.162971983E-4,7.635809598E-4,-4.581485991E-4
6.668367390E-1,1.527161920E-3,7.635809598E-4,-4.581485991E-4
6.689642910E-1,-9.162971983E-4,-4.581485991E-4,7.635809598E-4
6.710918430E-1,1.527161920E-3,7.635809598E-4,-1.679878100E-3
6.732193950E-1,3.054323897E-4,7.635809598E-4,-4.581485991E-4
6.753469470E-1,3.054323897E-4,7.635809598E-4,7.635809598E-4
6.774745510E-1,3.054323897E-4,7.635809598E-4,7.635809598E-4
6.796021030E-1,-9.162971983E-4,1.985310577E-3,-4.581485991E-4
6.817296550E-1,3.054323897E-4,-4.581485991E-4,7.635809598E-4
6.838572070E-1,-9.162971983E-4,-4.581485991E-4,7.635809598E-4
6.859847590E-1,1.527161920E-3,-4.581485991E-4,-4.581485991E-4
6.881123110E-1,-9.162971983E-4,-4.581485991E-4,-4.581485991E-4
6.902399160E-1,-9.162971983E-4,-1.679878100E-3,-4.581485991E-4
6.923674680E-1,1.527161920E-3,-4.581485991E-4,7.635809598E-4
6.944950200E-1,3.054323897E-4,-4.581485991E-4,-4.581485991E-4
6.966225720E-1,-9.162971983E-4,-4.581485991E-4,1.985310577E-3
6.987501240E-1,3.054323897E-4,-1.679878100E-3,-1.679878100E-3
7.008776760E-1,-9.162971983E-4,1.985310577E-3,-4.581485991E-4
7.030052800E-1,1.527161920E-3,-4.581485991E-4,-4.581485991E-4
7.051328320E-1,-9.162971983E-4,7.635809598E-4,-4.581485991E-4
7.072603840E-1,3.054323897E-4,-1.679878100E-3,-4.581485991E-4
7.093879360E-1,3.054323897E-4,-1.679878100E-3,-4.581485991E-4
7.115154890E-1,-9.162971983E-4,7.635809598E-4,-4.581485991E-4
7.136430930E-1,3.054323897E-4,-4.581485991E-4,7.635809598E-4
7.157706450E-1,3.054323897E-4,-4.581485991E-4,7.635809598E-4
7.178981970E-1,1.527161920E-3,-4.581485991E-4,-4.581485991E-4
7.200257490E-1,-9.162971983E-4,7.635809598E-4,7.635809598E-4
7.221533010E-1,3.054323897E-4,7.635809598E-4,7.635809598E-4
7.242808530E-1,-9.162971983E-4,7.635809598E-4,7.635809598E-4
7.264084570E-1,3.054323897E-4,-4.581485991E-4,-4.581485991E-4
7.285360090E-1,3.054323897E-4,-4.581485991E-4,7.635809598E-4
7.306635610E-1,-9.162971983E-4,-4.581485991E-4,-4.581485991E-4
7.327911140E-1,3.054323897E-4,-4.581485991E-4,-4.581485991E-4
7.349186660E-1,-9.162971983E-4,-4.581485991E-4,7.635809598E-4
7.370462700E-1,-9.162971983E-4,-1.679878100E-3,-4.581485991E-4
7.391738220E-1,1.527161920E-3,1.985310577E-3,-4.581485991E-4
7.413013740E-1,1.527161920E-3,-4.581485991E-4,-4.581485991E-4
7.434289260E-1,1.527161920E-3,7.635809598E-4,7.635809598E-4
7.455564780E-1,1.527161920E-3,-4.581485991E-4,7.635809598E-4
7.476840300E-1,3.054323897E-4,1.985310577E-3,7.635809598E-4
7.498116340E-1,3.054323897E-4,7.635809598E-4,-4.581485991E-4
7.519391860E-1,-9.162971983E-4,-4.581485991E-4,7.635809598E-4
7.540667390E-1,3.054323897E-4,-4.581485991E-4,-4.581485991E-4
7.561942910E-1,1.527161920E-3,7.635809598E-4,-4.581485991E-4
7.583218430E-1,3.054323897E-4,-4.581485991E-4,-4.581485991E-4
7.604494470E-1,3.054323897E-4,-4.581485991E-4,-4.581485991E-4
7.625769990E-1,3.054323897E-4,-4.581485991E-4,-4.581485991E-4
7.647045510E-1,3.054323897E-4,-4.581485991E-4,-4.581485991E-4
7.668321030E-1,3.054323897E-4,-4.581485991E-4,-4.581485991E-4
7.689596550E-1,-9.162971983E-4,-4.581485991E-4,-4.581485991E-4
7.710872070E-1,3.054323897E-4,7.635809598E-4,-4.581485991E-4
7.732148110E-1,3.054323897E-4,-4.581485991E-4,-4.581485991E-4
7.753423640E-1,3.054323897E-4,-1.679878100E-3,7.635809598E-4
7.774699160E-1,-2.138026757E-3,1.985310577E-3,1.985310577E-3
7.795974680E-1,-2.138026757E-3,7.635809598E-4,1.985310577E-3
7.817250200E-1,-9.162971983E-4,-1.679878100E-3,-4.581485991E-4
7.838525720E-1,3.054323897E-4,-1.679878100E-3,-4.581485991E-4
7.859801760E-1,-9.162971983E-4,-4.581485991E-4,-4.581485991E-4
7.881077280E-1,-9.162971983E-4,7.635809598E-4,-1.679878100E-3
7.902352800E-1,-9.162971983E-4,-4.581485991E-4,-4.581485991E-4
7.923628320E-1,-9.162971983E-4,7.635809598E-4,-4.581485991E-4
7.944903840E-1,3.054323897E-4,-4.581485991E-4,-4.581485991E-4
7.966179890E-1,3.054323897E-4,7.635809598E-4,7.635809598E-4
7.987455410E-1,3.054323897E-4,7.635809598E-4,-1.679878100E-3
8.008730930E-1,-9.162971983E-4,-4.581485991E-4,-4.581485991E-4
8.030006450E-1,-9.162971983E-4,7.635809598E-4,7.635809598E-4
8.051281970E-1,-9.162971983E-4,7.635809598E-4,-4.581485991E-4
8.072557490E-1,3.054323897E-4,-1.679878100E-3,-4.581485991E-4
8.093833010E-1,3.054323897E-4,-4.581485991E-4,-4.581485991E-4
8.115109050E-1,3.054323897E-4,7.635809598E-4,7.635809598E-4
8.136384570E-1,1.527161920E-3,-4.581485991E-4,-4.581485991E-4
8.157660090E-1,-9.162971983E-4,7.635809598E-4,7.635809598E-4
8.178935610E-1,3.054323897E-4,-4.581485991E-4,7.635809598E-4
8.200211660E-1,3.054323897E-4,-4.581485991E-4,-1.679878100E-3
8.221487180E-1,3.054323897E-4,7.635809598E-4,7.635809598E-4
8.242762700E-1,-9.162971983E-4,-4.581485991E-4,-4.581485991E-4
8.264038220E-1,3.054323897E-4,-4.581485991E-4,1.985310577E-3
8.285313740E-1,3.054323897E-4,-4.581485991E-4,1.985310577E-3
8.306589260E-1,3.054323897E-4,7.635809598E-4,-4.581485991E-4
8.327865300E-1,1.527161920E-3,-1.679878100E-3,-4.581485991E-4
8.349140300E-1,3.054323897E-4,-4.581485991E-4,-4.581485991E-4
8.370416340E-1,3.054323897E-4,-4.581485991E-4,-4.581485991E-4
8.391691860E-1,3.054323897E-4,-4.581485991E-4,-4.581485991E-4
8.412967390E-1,3.054323897E-4,-4.581485991E-4,-4.581485991E-4
8.434243430E-1,3.054323897E-4,-1.679878100E-3,-4.581485991E-4
8.455518950E-1,3.054323897E-4,-4.581485991E-4,-1.679878100E-3
8.476794470E-1,3.054323897E-4,-4.581485991E-4,-4.581485991E-4
8.498069990E-1,2.748891478E-3,-4.581485991E-4,-4.581485991E-4
8.519345510E-1,-9.162971983E-4,-4.581485991E-4,7.635809598E-4
8.540621030E-1,3.054323897E-4,-4.581485991E-4,-4.581485991E-4
8.561897070E-1,3.054323897E-4,-4.581485991E-4,-4.581485991E-4
8.583172590E-1,3.054323897E-4,7.635809598E-4,-4.581485991E-4
8.604448110E-1,3.054323897E-4,1.985310577E-3,1.985310577E-3
8.625723640E-1,-9.162971983E-4,7.635809598E-4,7.635809598E-4
8.646999160E-1,3.054323897E-4,-4.581485991E-4,-4.581485991E-4
8.668274680E-1,3.054323897E-4,7.635809598E-4,7.635809598E-4
8.689550720E-1,3.054323897E-4,7.635809598E-4,-1.679878100E-3
8.710826240E-1,3.054323897E-4,-4.581485991E-4,-4.581485991E-4
8.732101760E-1,-9.162971983E-4,-1.679878100E-3,-4.581485991E-4
8.753377280E-1,3.054323897E-4,7.635809598E-4,7.635809598E-4
8.774652800E-1,3.054323897E-4,-4.581485991E-4,-4.581485991E-4
8.795928840E-1,-9.162971983E-4,7.635809598E-4,-4.581485991E-4
8.817204360E-1,3.054323897E-4,-1.679878100E-3,-4.581485991E-4
8.838479890E-1,3.054323897E-4,-4.581485991E-4,-4.581485991E-4
8.859755410E-1,3.054323897E-4,-4.581485991E-4,-4.581485991E-4
8.881030930E-1,3.054323897E-4,-2.901607659E-3,-4.581485991E-4
8.902306970E-1,3.054323897E-4,-4.581485991E-4,7.635809598E-4
8.923582490E-1,1.527161920E-3,7.635809598E-4,-4.581485991E-4
8.944858010E-1,3.054323897E-4,7.635809598E-4,-4.581485991E-4
8.966133530E-1,2.748891478E-3,-4.581485991E-4,-4.581485991E-4
8.987409050E-1,3.054323897E-4,7.635809598E-4,7.635809598E-4
9.008684570E-1,3.054323897E-4,7.635809598E-4,1.985310577E-3
9.029960090E-1,3.054323897E-4,3.207040019E-3,-4.581485991E-4
9.051236140E-1,3.054323897E-4,-4.581485991E-4,-4.581485991E-4
9.072511660E-1,1.527161920E-3,-4.581485991E-4,-4.581485991E-4
9.093787180E-1,3.054323897E-4,-4.581485991E-4,-4.581485991E-4
9.115062700E-1,1.527161920E-3,-1.679878100E-3,-4.581485991E-4
9.136338740E-1,3.054323897E-4,-4.581485991E-4,-1.679878100E-3
9.157614260E-1,-9.162971983E-4,-4.581485991E-4,-4.581485991E-4
9.178889780E-1,3.054323897E-4,7.635809598E-4,-4.581485991E-4
9.200165300E-1,3.054323897E-4,7.635809598E-4,-4.581485991E-4
9.221440820E-1,-9.162971983E-4,-4.581485991E-4,7.635809598E-4
9.242716860E-1,3.054323897E-4,-1.679878100E-3,-1.679878100E-3
9.263992390E-1,-9.162971983E-4,-4.581485991E-4,-4.581485991E-4
9.285267910E-1,1.527161920E-3,7.635809598E-4,-1.679878100E-3
9.306543430E-1,1.527161920E-3,-4.581485991E-4,7.635809598E-4
9.327818950E-1,3.054323897E-4,-4.581485991E-4,-4.581485991E-4
9.349094470E-1,1.527161920E-3,-1.679878100E-3,7.635809598E-4
9.370369990E-1,-9.162971983E-4,-4.581485991E-4,-4.581485991E-4
9.391646030E-1,3.054323897E-4,-4.581485991E-4,-4.581485991E-4
9.412921550E-1,3.054323897E-4,-1.679878100E-3,-4.581485991E-4
9.434197070E-1,-9.162971983E-4,-4.581485991E-4,-4.581485991E-4
9.455472590E-1,3.054323897E-4,-4.581485991E-4,-4.581485991E-4
9.476748640E-1,-9.162971983E-4,-1.679878100E-3,-4.581485991E-4
9.498024160E-1,3.054323897E-4,7.635809598E-4,7.635809598E-4
9.519299680E-1,1.527161920E-3,7.635809598E-4,7.635809598E-4
9.540575200E-1,3.054323897E-4,7.635809598E-4,-4.581485991E-4
9.561850720E-1,3.054323897E-4,7.635809598E-4,-4.581485991E-4
9.583126240E-1,1.527161920E-3,-4.581485991E-4,-4.581485991E-4
9.604401760E-1,3.054323897E-4,-4.581485991E-4,7.635809598E-4
9.625677800E-1,1.527161920E-3,-1.679878100E-3,-4.581485991E-4
9.646953320E-1,3.054323897E-4,-4.581485991E-4,7.635809598E-4
9.668228840E-1,-9.162971983E-4,-4.581485991E-4,7.635809598E-4
9.689504360E-1,-9.162971983E-4,-4.581485991E-4,-4.581485991E-4
9.710780410E-1,-2.138026757E-3,-4.581485991E-4,7.635809598E-4
9.732055930E-1,1.527161920E-3,7.635809598E-4,-1.679878100E-3
9.753331450E-1,3.054323897E-4,-1.679878100E-3,-1.679878100E-3
9.774606970E-1,3.054323897E-4,-4.581485991E-4,7.635809598E-4
9.795882490E-1,3.054323897E-4,7.635809598E-4,7.635809598E-4
9.817158010E-1,3.054323897E-4,7.635809598E-4,7.635809598E-4
9.838434050E-1,3.054323897E-4,-4.581485991E-4,-4.581485991E-4
9.859709570E-1,-9.162971983E-4,-1.679878100E-3,-4.581485991E-4
9.880985090E-1,-9.162971983E-4,7.635809598E-4,7.635809598E-4
9.902260610E-1,-9.162971983E-4,7.635809598E-4,7.635809598E-4
9.923536140E-1,3.054323897E-4,7.635809598E-4,7.635809598E-4
9.944811660E-1,-9.162971983E-4,1.985310577E-3,7.635809598E-4
9.966087700E-1,-9.162971983E-4,7.635809598E-4,7.635809598E-4
9.987363220E-1,3.054323897E-4,-4.581485991E-4,-4.581485991E-4
1.000863874E0,1.527161920E-3,7.635809598E-4,-1.679878100E-3
1.002991426E0,3.054323897E-4,1.985310577E-3,7.635809598E-4
1.005118978E0,-9.162971983E-4,-4.581485991E-4,-4.581485991E-4
1.007246582E0,-9.162971983E-4,7.635809598E-4,1.985310577E-3
1.009374134E0,-9.162971983E-4,7.635809598E-4,-4.581485991E-4
1.011501686E0,-9.162971983E-4,-4.581485991E-4,7.635809598E-4
1.013629239E0,3.054323897E-4,7.635809598E-4,1.985310577E-3
1.015756791E0,-9.162971983E-4,7.635809598E-4,7.635809598E-4
1.017884395E0,3.054323897E-4,-4.581485991E-4,-4.581485991E-4
1.020011947E0,-9.162971983E-4,7.635809598E-4,-1.679878100E-3
1.022139499E0,-9.162971983E-4,7.635809598E-4,-4.581485991E-4
1.024267051E0,3.054323897E-4,7.635809598E-4,7.635809598E-4
1.026394603E0,-9.162971983E-4,-1.679878100E-3,-4.581485991E-4
1.028522155E0,3.054323897E-4,-4.581485991E-4,-4.581485991E-4
1.030649759E0,1.527161920E-3,7.635809598E-4,7.635809598E-4
1.032777311E0,3.054323897E-4,-4.581485991E-4,7.635809598E-4
1.034904864E0,3.054323897E-4,1.985310577E-3,7.635809598E-4
1.037032416E0,-2.138026757E-3,7.635809598E-4,-1.679878100E-3
1.039159968E0,3.054323897E-4,-4.581485991E-4,7.635809598E-4
1.041287572E0,1.527161920E-3,-1.679878100E-3,7.635809598E-4
1.043415124E0,3.054323897E-4,-1.679878100E-3,-4.581485991E-4
1.045542676E0,3.054323897E-4,-4.123337101E-3,7.635809598E-4
1.047670228E0,3.054323897E-4,-2.901607659E-3,-4.581485991E-4
1.049797780E0,3.054323897E-4,-1.679878100E-3,-1.679878100E-3
1.051925384E0,3.054323897E-4,-2.901607659E-3,7.635809598E-4
1.054052936E0,3.054323897E-4,-1.679878100E-3,-4.581485991E-4
1.056180489E0,3.054323897E-4,-1.679878100E-3,-4.581485991E-4
1.058308041E0,3.054323897E-4,-1.679878100E-3,-4.581485991E-4
1.060435593E0,3.054323897E-4,-4.581485991E-4,7.635809598E-4
1.062563145E0,3.054323897E-4,-1.679878100E-3,7.635809598E-4
1.064690749E0,-9.162971983E-4,-2.901607659E-3,7.635809598E-4
1.066818301E0,-9.162971983E-4,-1.679878100E-3,-4.581485991E-4
1.068945853E0,1.527161920E-3,-1.679878100E-3,7.635809598E-4
1.071073405E0,1.527161920E-3,-2.901607659E-3,7.635809598E-4
1.073200957E0,-9.162971983E-4,-1.679878100E-3,-4.581485991E-4
1.075328561E0,3.054323897E-4,-1.679878100E-3,-4.581485991E-4
1.077456114E0,3.054323897E-4,-4.581485991E-4,-4.581485991E-4
1.079583666E0,3.054323897E-4,7.635809598E-4,7.635809598E-4
1.081711218E0,1.527161920E-3,1.985310577E-3,7.635809598E-4
1.083838770E0,-9.162971983E-4,-4.581485991E-4,7.635809598E-4
1.085966374E0,3.054323897E-4,7.635809598E-4,-4.581485991E-4
1.088093926E0,-9.162971983E-4,1.985310577E-3,7.635809598E-4
1.090221478E0,-9.162971983E-4,1.985310577E-3,7.635809598E-4
1.092349030E0,-2.138026757E-3,1.985310577E-3,1.985310577E-3
1.094476582E0,-9.162971983E-4,7.635809598E-4,7.635809598E-4
1.096604134E0,-9.162971983E-4,7.635809598E-4,-4.581485991E-4
1.098731739E0,1.527161920E-3,7.635809598E-4,-4.581485991E-4
1.100859291E0,3.054323897E-4,1.985310577E-3,1.985310577E-3
1.102986843E0,3.054323897E-4,7.635809598E-4,7.635809598E-4
1.105114395E0,3.054323897E-4,7.635809598E-4,-4.581485991E-4
1.107241947E0,3.054323897E-4,1.985310577E-3,7.635809598E-4
1.109369499E0,-9.162971983E-4,1.985310577E-3,7.635809598E-4
1.111497103E0,1.527161920E-3,1.985310577E-3,-4.581485991E-4
1.113624655E0,3.054323897E-4,1.985310577E-3,7.635809598E-4
1.115752207E0,1.527161920E-3,7.635809598E-4,-4.581485991E-4
1.117879759E0,1.527161920E-3,1.985310577E-3,7.635809598E-4
1.120007364E0,1.527161920E-3,1.985310577E-3,-4.581485991E-4
1.122134916E0,1.527161920E-3,7.635809598E-4,7.635809598E-4
1.124262468E0,-9.162971983E-4,-4.581485991E-4,7.635809598E-4
1.126390020E0,-9.162971983E-4,1.985310577E-3,7.635809598E-4
1.128517572E0,-9.162971983E-4,7.635809598E-4,-4.581485991E-4
1.130645124E0,1.527161920E-3,7.635809598E-4,7.635809598E-4
1.132772728E0,-9.162971983E-4,7.635809598E-4,-1.679878100E-3
1.134900280E0,3.054323897E-4,-4.581485991E-4,-4.581485991E-4
1.137027832E0,-9.162971983E-4,-4.581485991E-4,-4.581485991E-4
1.139155384E0,-9.162971983E-4,7.635809598E-4,1.985310577E-3
1.141282936E0,3.054323897E-4,-4.581485991E-4,7.635809598E-4
1.143410541E0,3.054323897E-4,7.635809598E-4,1.985310577E-3
1.145538093E0,3.054323897E-4,-1.679878100E-3,-4.581485991E-4
1.147665645E0,3.054323897E-4,-2.901607659E-3,-4.581485991E-4
1.149793197E0,3.054323897E-4,-1.679878100E-3,-1.679878100E-3
1.151920749E0,3.054323897E-4,-4.581485991E-4,-4.581485991E-4
1.154048353E0,3.054323897E-4,-4.581485991E-4,-4.581485991E-4
1.156175905E0,1.527161920E-3,-4.581485991E-4,-4.581485991E-4
1.158303457E0,3.054323897E-4,-1.679878100E-3,-4.581485991E-4
1.160431009E0,-9.162971983E-4,-1.679878100E-3,1.985310577E-3
1.162558561E0,3.054323897E-4,-4.581485991E-4,7.635809598E-4
1.164686166E0,3.054323897E-4,-1.679878100E-3,-4.581485991E-4
1.166813718E0,-9.162971983E-4,-4.123337101E-3,-4.581485991E-4
1.168941270E0,-9.162971983E-4,-2.901607659E-3,-4.581485991E-4
1.171068822E0,3.054323897E-4,-1.679878100E-3,7.635809598E-4
1.173196374E0,-9.162971983E-4,-1.679878100E-3,7.635809598E-4
1.175323926E0,3.054323897E-4,-2.901607659E-3,-1.679878100E-3
1.177451530E0,-9.162971983E-4,-4.581485991E-4,7.635809598E-4
1.179579082E0,-9.162971983E-4,-4.123337101E-3,-1.679878100E-3
1.181706634E0,-9.162971983E-4,-1.679878100E-3,-4.581485991E-4
1.183834186E0,-9.162971983E-4,-4.581485991E-4,-4.581485991E-4
1.185961791E0,3.054323897E-4,-4.581485991E-4,-4.581485991E-4
1.188089343E0,-9.162971983E-4,-2.901607659E-3,-4.581485991E-4
1.190216895E0,-9.162971983E-4,-2.901607659E-3,-4.581485991E-4
1.192344447E0,-9.162971983E-4,-2.901607659E-3,-4.581485991E-4
1.194471999E0,3.054323897E-4,-1.679878100E-3,-4.581485991E-4
1.196599551E0,2.748891478E-3,-1.679878100E-3,-1.679878100E-3
1.198727155E0,3.054323897E-4,-4.581485991E-4,-4.581485991E-4
1.200854707E0,-9.162971983E-4,-1.679878100E-3,7.635809598E-4
1.202982259E0,-9.162971983E-4,4.428769462E-3,7.635809598E-4
1.205109811E0,3.054323897E-4,6.872228812E-3,-4.581485991E-4
1.207237364E0,-2.138026757E-3,4.428769462E-3,-4.581485991E-4
1.209364968E0,-9.162971983E-4,7.635809598E-4,-4.581485991E-4
1.211492520E0,-2.138026757E-3,-4.581485991E-4,7.635809598E-4
1.213620072E0,-9.162971983E-4,1.985310577E-3,-1.679878100E-3
1.215747624E0,1.527161920E-3,3.207040019E-3,-4.581485991E-4
1.217875176E0,3.054323897E-4,1.985310577E-3,-4.581485991E-4
1.220002780E0,-9.162971983E-4,7.635809598E-4,-4.581485991E-4
1.222130332E0,3.054323897E-4,1.985310577E-3,-4.581485991E-4
1.224257884E0,1.527161920E-3,3.207040019E-3,-1.679878100E-3
1.226385436E0,3.054323897E-4,1.985310577E-3,7.635809598E-4
1.228512989E0,-9.162971983E-4,1.985310577E-3,-4.581485991E-4
1.230640593E0,3.054323897E-4,1.985310577E-3,-4.581485991E-4
1.232768145E0,3.054323897E-4,1.985310577E-3,-4.581485991E-4
1.234895697E0,3.054323897E-4,1.985310577E-3,1.985310577E-3
1.237023249E0,-9.162971983E-4,1.985310577E-3,7.635809598E-4
1.239150801E0,-9.162971983E-4,7.635809598E-4,-4.581485991E-4
1.241278405E0,3.054323897E-4,7.635809598E-4,-4.581485991E-4
1.243405957E0,3.054323897E-4,7.635809598E-4,7.635809598E-4
1.245533509E0,3.054323897E-4,-4.581485991E-4,-4.581485991E-4
1.247661061E0,3.054323897E-4,7.635809598E-4,7.635809598E-4
1.249788614E0,-9.162971983E-4,7.635809598E-4,-4.581485991E-4
1.251916166E0,-2.138026757E-3,7.635809598E-4,7.635809598E-4
1.254043770E0,1.527161920E-3,7.635809598E-4,-4.581485991E-4
1.256171322E0,3.054323897E-4,7.635809598E-4,-4.581485991E-4
1.258298874E0,1.527161920E-3,-4.581485991E-4,-4.581485991E-4
1.260426426E0,-9.162971983E-4,-4.581485991E-4,-4.581485991E-4
1.262553978E0,3.054323897E-4,7.635809598E-4,7.635809598E-4
1.264681582E0,1.527161920E-3,-1.679878100E-3,7.635809598E-4
1.266809134E0,3.054323897E-4,-4.581485991E-4,-4.581485991E-4
1.268936686E0,3.054323897E-4,7.635809598E-4,-4.581485991E-4
1.271064239E0,-9.162971983E-4,1.985310577E-3,-4.581485991E-4
1.273191791E0,-9.162971983E-4,-4.581485991E-4,7.635809598E-4
1.275319395E0,3.054323897E-4,-4.581485991E-4,7.635809598E-4
1.277446947E0,3.054323897E-4,7.635809598E-4,7.635809598E-4
1.279574499E0,3.054323897E-4,-4.581485991E-4,-4.581485991E-4
1.281702051E0,3.054323897E-4,-4.581485991E-4,7.635809598E-4
1.283829603E0,3.054323897E-4,7.635809598E-4,-4.581485991E-4
1.285957207E0,1.527161920E-3,-4.581485991E-4,-4.581485991E-4
1.288084759E0,-9.162971983E-4,-4.581485991E-4,7.635809598E-4
1.290212311E0,3.054323897E-4,-4.581485991E-4,7.635809598E-4
1.292339864E0,3.054323897E-4,-4.581485991E-4,-4.581485991E-4
1.294467416E0,-9.162971983E-4,-4.581485991E-4,-4.581485991E-4
1.296595020E0,3.054323897E-4,-4.581485991E-4,7.635809598E-4
1.298722572E0,3.054323897E-4,7.635809598E-4,-4.581485991E-4
1.300850124E0,3.054323897E-4,1.985310577E-3,7.635809598E-4
1.302977676E0,3.054323897E-4,7.635809598E-4,-4.581485991E-4
1.305105228E0,-2.138026757E-3,7.635809598E-4,7.635809598E-4
1.307232780E0,-9.162971983E-4,-4.581485991E-4,7.635809598E-4
1.309360384E0,1.527161920E-3,-4.581485991E-4,7.635809598E-4
1.311487936E0,-9.162971983E-4,1.985310577E-3,-4.581485991E-4
1.313615489E0,3.054323897E-4,-1.679878100E-3,-4.581485991E-4
1.315743041E0,3.054323897E-4,-4.581485991E-4,-4.581485991E-4
1.317870593E0,-9.162971983E-4,-4.581485991E-4,-4.581485991E-4
1.319998197E0,-9.162971983E-4,7.635809598E-4,-4.581485991E-4
1.322125749E0,3.054323897E-4,-4.581485991E-4,7.635809598E-4
1.324253301E0,3.054323897E-4,7.635809598E-4,7.635809598E-4
1.326380853E0,1.527161920E-3,7.635809598E-4,7.635809598E-4
1.328508405E0,3.054323897E-4,7.635809598E-4,-4.581485991E-4
1.330636009E0,3.054323897E-4,-1.679878100E-3,7.635809598E-4
1.332763561E0,3.054323897E-4,-4.581485991E-4,-4.581485991E-4
1.334891114E0,3.054323897E-4,-1.679878100E-3,7.635809598E-4
1.337018666E0,3.054323897E-4,-4.581485991E-4,1.985310577E-3
1.339146218E0,-9.162971983E-4,7.635809598E-4,7.635809598E-4
1.341273770E0,3.054323897E-4,-1.679878100E-3,-4.581485991E-4
1.343401374E0,3.054323897E-4,-4.581485991E-4,-4.581485991E-4
1.345528926E0,3.054323897E-4,-4.581485991E-4,-4.581485991E-4
1.347656478E0,-9.162971983E-4,-4.581485991E-4,-4.581485991E-4
1.349784030E0,-9.162971983E-4,-4.581485991E-4,7.635809598E-4
1.351911582E0,-9.162971983E-4,7.635809598E-4,-4.581485991E-4
1.354039186E0,-9.162971983E-4,7.635809598E-4,-4.581485991E-4
1.356166739E0,-9.162971983E-4,-4.581485991E-4,-4.581485991E-4
1.358294291E0,3.054323897E-4,-4.581485991E-4,-4.581485991E-4
1.360421843E0,3.054323897E-4,-1.679878100E-3,7.635809598E-4
1.362549447E0,-9.162971983E-4,-1.679878100E-3,-4.581485991E-4
1.364676999E0,3.054323897E-4,7.635809598E-4,-4.581485991E-4
1.366804551E0,-2.138026757E-3,-4.581485991E-4,7.635809598E-4
1.368932103E0,3.054323897E-4,-4.581485991E-4,-4.581485991E-4
1.371059655E0,1.527161920E-3,-1.679878100E-3,-4.581485991E-4
1.373187207E0,3.054323897E-4,-4.581485991E-4,-1.679878100E-3
1.375314811E0,3.054323897E-4,7.635809598E-4,7.635809598E-4
1.377442364E0,1.527161920E-3,7.635809598E-4,-4.581485991E-4
1.379569916E0,1.527161920E-3,-1.679878100E-3,-4.581485991E-4
1.381697468E0,-2.138026757E-3,7.635809598E-4,-4.581485991E-4
1.383825072E0,-9.162971983E-4,7.635809598E-4,7.635809598E-4
1.385952624E0,-9.162971983E-4,7.635809598E-4,-4.581485991E-4
1.388080176E0,3.054323897E-4,-4.581485991E-4,-4.581485991E-4
1.390207728E0,3.054323897E-4,-4.581485991E-4,-1.679878100E-3
1.392335280E0,-9.162971983E-4,-4.581485991E-4,-4.581485991E-4
1.394462884E0,3.054323897E-4,7.635809598E-4,-1.679878100E-3
1.396590436E0,-9.162971983E-4,7.635809598E-4,-1.679878100E-3
1.398717989E0,3.054323897E-4,7.635809598E-4,-1.679878100E-3
1.400845541E0,3.054323897E-4,-4.581485991E-4,-1.679878100E-3
1.402973093E0,1.527161920E-3,-4.581485991E-4,-4.581485991E-4
1.405100645E0,3.054323897E-4,7.635809598E-4,-4.581485991E-4
1.407228249E0,1.527161920E-3,7.635809598E-4,-1.679878100E-3
1.409355801E0,-9.162971983E-4,7.635809598E-4,-4.581485991E-4
1.411483353E0,3.054323897E-4,7.635809598E-4,-4.581485991E-4
1.413610905E0,-9.162971983E-4,1.985310577E-3,7.635809598E-4
1.415738509E0,1.527161920E-3,-4.581485991E-4,7.635809598E-4
1.417866061E0,1.527161920E-3,-4.581485991E-4,7.635809598E-4
1.419993614E0,3.054323897E-4,-4.581485991E-4,1.985310577E-3
1.422121166E0,3.054323897E-4,-4.581485991E-4,-4.581485991E-4
1.424248718E0,2.748891478E-3,7.635809598E-4,-1.679878100E-3
1.426376322E0,3.054323897E-4,-4.581485991E-4,7.635809598E-4
1.428503874E0,3.054323897E-4,7.635809598E-4,7.635809598E-4
1.430631426E0,3.054323897E-4,-4.581485991E-4,7.635809598E-4
1.432758978E0,-9.162971983E-4,-4.581485991E-4,-4.581485991E-4
1.434886530E0,3.054323897E-4,-4.581485991E-4,-4.581485991E-4
1.437014134E0,1.527161920E-3,7.635809598E-4,7.635809598E-4
1.439141686E0,1.527161920E-3,-4.581485991E-4,-4.581485991E-4
1.441269239E0,3.054323897E-4,-4.581485991E-4,-4.581485991E-4
1.443396791E0,3.054323897E-4,-4.581485991E-4,-4.581485991E-4
1.445524343E0,3.054323897E-4,7.635809598E-4,7.635809598E-4
1.447651947E0,-9.162971983E-4,7.635809598E-4,-4.581485991E-4
1.449779499E0,-2.138026757E-3,7.635809598E-4,7.635809598E-4
1.451907051E0,3.054323897E-4,-4.581485991E-4,-4.581485991E-4
1.454034603E0,-9.162971983E-4,-4.581485991E-4,-4.581485991E-4
1.456162155E0,3.054323897E-4,-4.581485991E-4,7.635809598E-4
1.458289759E0,-9.162971983E-4,-4.581485991E-4,-1.679878100E-3
1.460417311E0,3.054323897E-4,7.635809598E-4,7.635809598E-4
1.462544864E0,3.054323897E-4,-1.679878100E-3,-1.679878100E-3
1.464672416E0,3.054323897E-4,-1.679878100E-3,-4.581485991E-4
1.466799968E0,2.748891478E-3,-1.679878100E-3,-4.581485991E-4
1.468927520E0,3.054323897E-4,1.985310577E-3,-4.581485991E-4
1.471055124E0,-9.162971983E-4,-1.679878100E-3,-4.581485991E-4
1.473182676E0,1.527161920E-3,-4.581485991E-4,7.635809598E-4
1.475310228E0,3.054323897E-4,-4.581485991E-4,-4.581485991E-4
1.477437780E0,3.054323897E-4,7.635809598E-4,-4.581485991E-4
1.479565332E0,3.054323897E-4,-4.581485991E-4,7.635809598E-4
1.481692936E0,-9.162971983E-4,7.635809598E-4,-4.581485991E-4
1.483820489E0,3.054323897E-4,1.985310577E-3,-4.581485991E-4
1.485948041E0,1.527161920E-3,-4.581485991E-4,-4.581485991E-4
1.488075593E0,3.054323897E-4,7.635809598E-4,-4.581485991E-4
1.490203145E0,1.527161920E-3,7.635809598E-4,7.635809598E-4
1.492330749E0,3.054323897E-4,-1.679878100E-3,7.635809598E-4
1.494458301E0,3.054323897E-4,-4.581485991E-4,-4.581485991E-4
1.496585853E0,-9.162971983E-4,-4.581485991E-4,1.985310577E-3
1.498713405E0,3.054323897E-4,7.635809598E-4,-4.581485991E-4
1.500841009E0,-9.162971983E-4,1.985310577E-3,7.635809598E-4
1.502968561E0,-9.162971983E-4,-4.581485991E-4,-4.581485991E-4
1.505096114E0,3.054323897E-4,-1.679878100E-3,-1.679878100E-3
1.507223666E0,3.054323897E-4,7.635809598E-4,-4.581485991E-4
1.509351218E0,-9.162971983E-4,-1.679878100E-3,-4.581485991E-4
1.511478822E0,-2.138026757E-3,-4.581485991E-4,7.635809598E-4
1.513606374E0,-2.138026757E-3,-4.581485991E-4,-4.581485991E-4
1.515733926E0,3.054323897E-4,7.635809598E-4,-4.581485991E-4
1.517861478E0,3.054323897E-4,1.985310577E-3,-4.581485991E-4
1.519989030E0,1.527161920E-3,1.985310577E-3,-4.581485991E-4
1.522116634E0,3.054323897E-4,-4.581485991E-4,-4.581485991E-4
1.524244186E0,-9.162971983E-4,-4.581485991E-4,7.635809598E-4
1.526371739E0,-9.162971983E-4,7.635809598E-4,7.635809598E-4
1.528499291E0,3.054323897E-4,-1.679878100E-3,-4.581485991E-4
1.530626843E0,2.748891478E-3,-4.581485991E-4,-1.679878100E-3
1.532754447E0,3.054323897E-4,-1.679878100E-3,7.635809598E-4
1.534881999E0,-9.162971983E-4,-4.581485991E-4,-4.581485991E-4
1.537009551E0,-9.162971983E-4,7.635809598E-4,-4.581485991E-4
1.539137103E0,-9.162971983E-4,-4.581485991E-4,7.635809598E-4
1.541264655E0,3.054323897E-4,-1.679878100E-3,-4.581485991E-4
1.543392259E0,3.054323897E-4,-1.679878100E-3,-4.581485991E-4
1.545519811E0,3.054323897E-4,7.635809598E-4,-4.581485991E-4
1.547647364E0,3.054323897E-4,7.635809598E-4,7.635809598E-4
1.549774916E0,1.527161920E-3,-4.581485991E-4,7.635809598E-4
1.551902468E0,-9.162971983E-4,7.635809598E-4,-4.581485991E-4
1.554030072E0,1.527161920E-3,-4.581485991E-4,-4.581485991E-4
1.556157624E0,-9.162971983E-4,7.635809598E-4,7.635809598E-4
1.558285176E0,3.054323897E-4,-4.581485991E-4,-4.581485991E-4
1.560412728E0,-9.162971983E-4,-4.581485991E-4,-4.581485991E-4
1.562540280E0,3.054323897E-4,-4.581485991E-4,-4.581485991E-4
1.564667884E0,-9.162971983E-4,-4.581485991E-4,7.635809598E-4
1.566795436E0,1.527161920E-3,7.635809598E-4,7.635809598E-4
1.568922989E0,3.054323897E-4,-4.581485991E-4,7.635809598E-4
1.571050541E0,3.054323897E-4,-1.679878100E-3,-4.581485991E-4
1.573178093E0,1.527161920E-3,7.635809598E-4,-4.581485991E-4
1.575305697E0,3.054323897E-4,-4.581485991E-4,-1.679878100E-3
1.577433249E0,-9.162971983E-4,7.635809598E-4,-4.581485991E-4
1.579560801E0,1.527161920E-3,-4.581485991E-4,-4.581485991E-4
1.581688353E0,3.054323897E-4,-4.581485991E-4,-4.581485991E-4
1.583815957E0,1.527161920E-3,7.635809598E-4,1.985310577E-3
1.585943509E0,-9.162971983E-4,7.635809598E-4,7.635809598E-4
1.588071061E0,3.054323897E-4,-4.581485991E-4,7.635809598E-4
1.590198614E0,3.054323897E-4,-1.679878100E-3,-4.581485991E-4
1.592326166E0,-9.162971983E-4,-4.581485991E-4,-4.581485991E-4
1.594453718E0,1.527161920E-3,7.635809598E-4,7.635809598E-4
1.596581322E0,3.054323897E-4,7.635809598E-4,-4.581485991E-4
1.598708874E0,3.054323897E-4,7.635809598E-4,-4.581485991E-4
1.600836426E0,-9.162971983E-4,-4.581485991E-4,7.635809598E-4
1.602963978E0,-9.162971983E-4,-1.679878100E-3,-4.581485991E-4
1.605091582E0,-9.162971983E-4,-4.581485991E-4,7.635809598E-4
1.607219134E0,3.054323897E-4,-4.581485991E-4,-4.581485991E-4
1.609346686E0,-9.162971983E-4,7.635809598E-4,-4.581485991E-4
1.611474239E0,3.054323897E-4,-4.581485991E-4,-4.581485991E-4
1.613601791E0,3.054323897E-4,-4.581485991E-4,7.635809598E-4
1.615729395E0,-2.138026757E-3,-4.581485991E-4,-4.581485991E-4
1.617856947E0,3.054323897E-4,-4.581485991E-4,7.635809598E-4
1.619984499E0,-9.162971983E-4,-4.581485991E-4,-4.581485991E-4
1.622112051E0,-2.138026757E-3,-4.581485991E-4,7.635809598E-4
1.624239603E0,-9.162971983E-4,-4.581485991E-4,7.635809598E-4
1.626367207E0,-9.162971983E-4,-1.679878100E-3,7.635809598E-4
1.628494759E0,3.054323897E-4,-4.581485991E-4,-4.581485991E-4
1.630622311E0,3.054323897E-4,7.635809598E-4,-4.581485991E-4
1.632749864E0,3.054323897E-4,7.635809598E-4,7.635809598E-4
1.634877416E0,3.054323897E-4,7.635809598E-4,7.635809598E-4
1.637005020E0,1.527161920E-3,1.985310577E-3,7.635809598E-4
1.639132572E0,3.054323897E-4,7.635809598E-4,7.635809598E-4
1.641260124E0,3.054323897E-4,-4.581485991E-4,-4.581485991E-4
1.643387676E0,3.054323897E-4,-4.581485991E-4,-4.581485991E-4
1.645515228E0,3.054323897E-4,-4.581485991E-4,7.635809598E-4
1.647642832E0,3.054323897E-4,7.635809598E-4,-4.581485991E-4
1.649770384E0,1.527161920E-3,-4.581485991E-4,7.635809598E-4
1.651897936E0,3.054323897E-4,1.985310577E-3,-4.581485991E-4
1.654025489E0,3.054323897E-4,-4.581485991E-4,7.635809598E-4
1.656153041E0,3.054323897E-4,-1.679878100E-3,-4.581485991E-4
1.658280645E0,-9.162971983E-4,-4.581485991E-4,-4.581485991E-4
1.660408197E0,-9.162971983E-4,-4.581485991E-4,7.635809598E-4
1.662535749E0,3.054323897E-4,7.635809598E-4,7.635809598E-4
1.664663301E0,-9.162971983E-4,-4.581485991E-4,-1.679878100E-3
1.666790905E0,-9.162971983E-4,7.635809598E-4,7.635809598E-4
1.668918457E0,-9.162971983E-4,-4.581485991E-4,7.635809598E-4
1.671046009E0,-9.162971983E-4,7.635809598E-4,-4.581485991E-4
1.673173561E0,3.054323897E-4,-4.581485991E-4,7.635809598E-4
1.675301114E0,-9.162971983E-4,-1.679878100E-3,-4.581485991E-4
1.677428718E0,1.527161920E-3,-4.581485991E-4,7.635809598E-4
1.679556270E0,3.054323897E-4,7.635809598E-4,7.635809598E-4
1.681683822E0,3.054323897E-4,7.635809598E-4,7.635809598E-4
1.683811374E0,3.054323897E-4,-4.581485991E-4,-4.581485991E-4
1.685938978E0,1.527161920E-3,1.985310577E-3,-4.581485991E-4
1.688066530E0,2.748891478E-3,-4.581485991E-4,7.635809598E-4
1.690194082E0,3.054323897E-4,7.635809598E-4,7.635809598E-4
1.692321634E0,1.527161920E-3,-4.581485991E-4,-4.581485991E-4
1.694449186E0,3.054323897E-4,7.635809598E-4,-4.581485991E-4
1.696576739E0,3.054323897E-4,-4.581485991E-4,-4.581485991E-4
1.698704343E0,1.527161920E-3,7.635809598E-4,-4.581485991E-4
1.700831895E0,3.054323897E-4,7.635809598E-4,-4.581485991E-4
1.702959447E0,3.054323897E-4,7.635809598E-4,-4.581485991E-4
1.705086999E0,-9.162971983E-4,-4.581485991E-4,7.635809598E-4
1.707214551E0,1.527161920E-3,-4.581485991E-4,7.635809598E-4
1.709342155E0,-9.162971983E-4,7.635809598E-4,7.635809598E-4
1.711469707E0,-9.162971983E-4,7.635809598E-4,7.635809598E-4
1.713597259E0,-9.162971983E-4,-1.679878100E-3,-4.581485991E-4
1.715724811E0,-9.162971983E-4,-4.581485991E-4,-4.581485991E-4
1.717852416E0,3.054323897E-4,-2.901607659E-3,-4.581485991E-4
1.719979968E0,-9.162971983E-4,-4.581485991E-4,-4.581485991E-4
1.722107520E0,-9.162971983E-4,1.985310577E-3,7.635809598E-4
1.724235072E0,-9.162971983E-4,7.635809598E-4,7.635809598E-4
1.726362624E0,3.054323897E-4,-4.581485991E-4,-1.679878100E-3
1.728490176E0,-9.162971983E-4,7.635809598E-4,-4.581485991E-4
1.730617780E0,3.054323897E-4,7.635809598E-4,-4.581485991E-4
1.732745332E0,3.054323897E-4,7.635809598E-4,-4.581485991E-4
1.734872884E0,2.748891478E-3,-4.581485991E-4,-4.581485991E-4
1.737000436E0,1.527161920E-3,-4.581485991E-4,7.635809598E-4
1.739128041E0,3.054323897E-4,7.635809598E-4,7.635809598E-4
1.741255593E0,3.054323897E-4,7.635809598E-4,-1.679878100E-3
1.743383145E0,3.054323897E-4,7.635809598E-4,-1.679878100E-3
1.745510697E0,3.054323897E-4,7.635809598E-4,-4.581485991E-4
1.747638301E0,-9.162971983E-4,7.635809598E-4,7.635809598E-4
1.749765853E0,3.054323897E-4,7.635809598E-4,-4.581485991E-4
1.751893405E0,3.054323897E-4,7.635809598E-4,7.635809598E-4
1.754020957E0,3.054323897E-4,7.635809598E-4,7.635809598E-4
1.756148509E0,3.054323897E-4,-1.679878100E-3,-4.581485991E-4
1.758276061E0,-9.162971983E-4,-1.679878100E-3,7.635809598E-4
1.760403666E0,3.054323897E-4,-1.679878100E-3,-4.581485991E-4
1.762531218E0,-9.162971983E-4,7.635809598E-4,7.635809598E-4
1.764658770E0,3.054323897E-4,7.635809598E-4,7.635809598E-4
1.766786322E0,1.527161920E-3,7.635809598E-4,7.635809598E-4
1.768913926E0,3.054323897E-4,7.635809598E-4,7.635809598E-4
1.771041478E0,-9.162971983E-4,-4.581485991E-4,-4.581485991E-4
1.773169030E0,-2.138026757E-3,7.635809598E-4,7.635809598E-4
1.775296582E0,3.054323897E-4,7.635809598E-4,7.635809598E-4
1.777424134E0,1.527161920E-3,-4.581485991E-4,-4.581485991E-4
1.779551739E0,3.054323897E-4,-1.679878100E-3,7.635809598E-4
1.781679291E0,3.054323897E-4,-1.679878100E-3,-4.581485991E-4
1.783806843E0,1.527161920E-3,7.635809598E-4,-4.581485991E-4
1.785934395E0,-9.162971983E-4,7.635809598E-4,7.635809598E-4
1.788061947E0,3.054323897E-4,-4.581485991E-4,7.635809598E-4
1.790189551E0,-2.138026757E-3,7.635809598E-4,1.985310577E-3
1.792317103E0,3.054323897E-4,7.635809598E-4,-4.581485991E-4
1.794444655E0,3.054323897E-4,-4.581485991E-4,-1.679878100E-3
1.796572207E0,3.054323897E-4,-4.581485991E-4,-4.581485991E-4
1.798699811E0,1.527161920E-3,7.635809598E-4,-4.581485991E-4
1.800827364E0,3.054323897E-4,7.635809598E-4,-4.581485991E-4
1.802954916E0,-9.162971983E-4,-1.679878100E-3,-4.581485991E-4
1.805082468E0,-9.162971983E-4,-4.581485991E-4,-4.581485991E-4
1.807210020E0,-9.162971983E-4,-1.679878100E-3,7.635809598E-4
1.809337572E0,-9.162971983E-4,-4.581485991E-4,7.635809598E-4
1.811465176E0,1.527161920E-3,7.635809598E-4,-4.581485991E-4
1.813592728E0,1.527161920E-3,-1.679878100E-3,-4.581485991E-4
1.815720280E0,-9.162971983E-4,-4.581485991E-4,7.635809598E-4
1.817847832E0,-9.162971983E-4,-4.581485991E-4,-4.581485991E-4
1.819975436E0,1.527161920E-3,7.635809598E-4,-4.581485991E-4
1.822102989E0,1.527161920E-3,-4.581485991E-4,-4.581485991E-4
1.824230541E0,-9.162971983E-4,-4.581485991E-4,7.635809598E-4
1.826358093E0,1.527161920E-3,-4.581485991E-4,7.635809598E-4
1.828485645E0,1.527161920E-3,-4.581485991E-4,-4.581485991E-4
1.830613249E0,3.054323897E-4,7.635809598E-4,7.635809598E-4
1.832740801E0,3.054323897E-4,-4.581485991E-4,-4.581485991E-4
1.834868353E0,-9.162971983E-4,7.635809598E-4,-4.581485991E-4
1.836995905E0,3.054323897E-4,-4.581485991E-4,-4.581485991E-4
1.839123509E0,3.054323897E-4,-1.679878100E-3,-1.679878100E-3
1.841251061E0,3.054323897E-4,7.635809598E-4,7.635809598E-4
1.843378614E0,-9.162971983E-4,7.635809598E-4,-4.581485991E-4
1.845506166E0,1.527161920E-3,1.985310577E-3,7.635809598E-4
1.847633718E0,3.054323897E-4,7.635809598E-4,7.635809598E-4
1.849761322E0,3.054323897E-4,-4.581485991E-4,7.635809598E-4
1.851888874E0,-9.162971983E-4,-4.581485991E-4,-4.581485991E-4
1.854016426E0,-9.162971983E-4,7.635809598E-4,7.635809598E-4
1.856143978E0,1.527161920E-3,-4.581485991E-4,-4.581485991E-4
1.858271530E0,3.054323897E-4,7.635809598E-4,7.635809598E-4
1.860399134E0,3.054323897E-4,7.635809598E-4,-4.581485991E-4
1.862526686E0,1.527161920E-3,-4.581485991E-4,7.635809598E-4
1.864654239E0,-9.162971983E-4,-4.581485991E-4,-4.581485991E-4
1.866781791E0,3.054323897E-4,-4.581485991E-4,7.635809598E-4
1.868909395E0,-9.162971983E-4,-4.581485991E-4,-1.679878100E-3
1.871036947E0,3.054323897E-4,-4.581485991E-4,-4.581485991E-4
1.873164499E0,1.527161920E-3,-4.581485991E-4,7.635809598E-4
1.875292051E0,3.054323897E-4,-4.581485991E-4,-1.679878100E-3
1.877419603E0,1.527161920E-3,7.635809598E-4,7.635809598E-4
1.879547207E0,1.527161920E-3,-4.581485991E-4,-1.679878100E-3
1.881674759E0,-9.162971983E-4,-1.679878100E-3,7.635809598E-4
1.883802311E0,3.054323897E-4,-4.581485991E-4,-4.581485991E-4
1.885929864E0,1.527161920E-3,7.635809598E-4,-4.581485991E-4
1.888057468E0,1.527161920E-3,7.635809598E-4,-4.581485991E-4
1.890185020E0,1.527161920E-3,-4.581485991E-4,-4.581485991E-4
1.892312572E0,3.054323897E-4,-4.581485991E-4,-4.581485991E-4
1.894440124E0,1.527161920E-3,7.635809598E-4,-4.581485991E-4
1.896567676E0,3.054323897E-4,7.635809598E-4,-4.581485991E-4
1.898695228E0,-9.162971983E-4,7.635809598E-4,7.635809598E-4
1.900822832E0,3.054323897E-4,-1.679878100E-3,-4.581485991E-4
1.902950384E0,-9.162971983E-4,-4.581485991E-4,-4.581485991E-4
1.905077936E0,-9.162971983E-4,7.635809598E-4,-4.581485991E-4
1.907205489E0,1.527161920E-3,-4.581485991E-4,-4.581485991E-4
1.909333093E0,1.527161920E-3,7.635809598E-4,7.635809598E-4
1.911460645E0,-9.162971983E-4,-4.581485991E-4,-4.581485991E-4
1.913588197E0,3.054323897E-4,7.635809598E-4,-4.581485991E-4
1.915715749E0,3.054323897E-4,7.635809598E-4,7.635809598E-4
1.917843353E0,3.054323897E-4,7.635809598E-4,7.635809598E-4
1.919970905E0,1.527161920E-3,-4.581485991E-4,-1.679878100E-3
1.922098457E0,1.527161920E-3,-4.581485991E-4,-4.581485991E-4
1.924226009E0,3.054323897E-4,-4.581485991E-4,-4.581485991E-4
1.926353561E0,-9.162971983E-4,-4.581485991E-4,7.635809598E-4
1.928481166E0,-9.162971983E-4,-4.581485991E-4,7.635809598E-4
1.930608718E0,-2.138026757E-3,7.635809598E-4,-4.581485991E-4
1.932736270E0,1.527161920E-3,-4.581485991E-4,7.635809598E-4
1.934863822E0,-9.162971983E-4,7.635809598E-4,7.635809598E-4
1.936991374E0,3.054323897E-4,-1.679878100E-3,7.635809598E-4
1.939118926E0,1.527161920E-3,-4.581485991E-4,7.635809598E-4
1.941246530E0,3.054323897E-4,-4.581485991E-4,7.635809598E-4
1.943374082E0,-9.162971983E-4,-4.581485991E-4,7.635809598E-4
1.945501634E0,3.054323897E-4,-4.581485991E-4,1.985310577E-3
1.947629186E0,1.527161920E-3,7.635809598E-4,-4.581485991E-4
1.949756791E0,1.527161920E-3,7.635809598E-4,-1.679878100E-3
1.951884343E0,3.054323897E-4,1.985310577E-3,-4.581485991E-4
1.954011895E0,3.054323897E-4,-4.581485991E-4,-4.581485991E-4
1.956139447E0,3.054323897E-4,7.635809598E-4,7.635809598E-4
1.958267051E0,-9.162971983E-4,-4.581485991E-4,-1.679878100E-3
1.960394603E0,-9.162971983E-4,-1.679878100E-3,7.635809598E-4
1.962522155E0,3.054323897E-4,-4.581485991E-4,-4.581485991E-4
1.964649707E0,3.054323897E-4,-4.581485991E-4,7.635809598E-4
1.966777311E0,3.054323897E-4,-4.581485991E-4,-4.581485991E-4
1.968904864E0,-2.138026757E-3,-1.679878100E-3,-4.581485991E-4
1.971032416E0,3.054323897E-4,7.635809598E-4,7.635809598E-4
1.973159968E0,-9.162971983E-4,-4.581485991E-4,-4.581485991E-4
1.975287520E0,3.054323897E-4,7.635809598E-4,-4.581485991E-4
1.977415072E0,3.054323897E-4,7.635809598E-4,7.635809598E-4
1.979542676E0,3.054323897E-4,7.635809598E-4,-4.581485991E-4
1.981670228E0,3.054323897E-4,7.635809598E-4,-1.679878100E-3
1.983797780E0,3.054323897E-4,-1.679878100E-3,-4.581485991E-4
1.985925332E0,3.054323897E-4,-1.679878100E-3,-4.581485991E-4
1.988052884E0,3.054323897E-4,-1.679878100E-3,-1.679878100E-3
1.990180489E0,-9.162971983E-4,-4.581485991E-4,-4.581485991E-4
1.992308041E0,3.054323897E-4,-4.581485991E-4,-4.581485991E-4
1.994435593E0,-9.162971983E-4,-4.581485991E-4,7.635809598E-4
1.996563197E0,-9.162971983E-4,-4.581485991E-4,-4.581485991E-4
1.998690749E0,3.054323897E-4,7.635809598E-4,-4.581485991E-4
2.000818301E0,3.054323897E-4,7.635809598E-4,7.635809598E-4
2.002945853E0,1.527161920E-3,-1.679878100E-3,-4.581485991E-4
2.005073405E0,1.527161920E-3,-1.679878100E-3,7.635809598E-4
2.007201009E0,3.054323897E-4,-1.679878100E-3,-4.581485991E-4
2.009328561E0,3.054323897E-4,-4.581485991E-4,7.635809598E-4
2.011456114E0,1.527161920E-3,-4.581485991E-4,-4.581485991E-4
2.013583666E0,1.527161920E-3,7.635809598E-4,-4.581485991E-4
2.015711218E0,3.054323897E-4,-4.581485991E-4,-4.581485991E-4
2.017838822E0,3.054323897E-4,-4.581485991E-4,7.635809598E-4
2.019966374E0,-9.162971983E-4,-4.581485991E-4,7.635809598E-4
2.022093926E0,3.054323897E-4,-1.679878100E-3,-4.581485991E-4
2.024221478E0,-9.162971983E-4,-1.679878100E-3,-1.679878100E-3
2.026349082E0,1.527161920E-3,-4.581485991E-4,7.635809598E-4
2.028476634E0,3.054323897E-4,-4.581485991E-4,-4.581485991E-4
2.030604186E0,-9.162971983E-4,7.635809598E-4,-4.581485991E-4
2.032731739E0,-9.162971983E-4,-4.581485991E-4,-4.581485991E-4
2.034859291E0,-9.162971983E-4,-4.581485991E-4,-4.581485991E-4
2.036986895E0,3.054323897E-4,7.635809598E-4,-4.581485991E-4
2.039114447E0,-9.162971983E-4,-4.581485991E-4,-4.581485991E-4
2.041241999E0,3.054323897E-4,7.635809598E-4,7.635809598E-4
2.043369551E0,-9.162971983E-4,-4.581485991E-4,7.635809598E-4
2.045497103E0,3.054323897E-4,-4.581485991E-4,7.635809598E-4
2.047624707E0,3.054323897E-4,-4.581485991E-4,-4.581485991E-4
2.049752259E0,3.054323897E-4,-4.581485991E-4,-1.679878100E-3
2.051879811E0,-9.162971983E-4,7.635809598E-4,7.635809598E-4
2.054007364E0,3.054323897E-4,-4.581485991E-4,7.635809598E-4
2.056134968E0,3.054323897E-4,7.635809598E-4,7.635809598E-4
2.058262520E0,1.527161920E-3,-4.581485991E-4,-4.581485991E-4
2.060390072E0,1.527161920E-3,-1.679878100E-3,-4.581485991E-4
2.062517624E0,-9.162971983E-4,-4.581485991E-4,7.635809598E-4
2.064645176E0,3.054323897E-4,-4.581485991E-4,-1.679878100E-3
2.066772780E0,-9.162971983E-4,-4.581485991E-4,-4.581485991E-4
2.068900332E0,1.527161920E-3,-4.581485991E-4,-4.581485991E-4
2.071027884E0,3.054323897E-4,7.635809598E-4,-1.679878100E-3
2.073155436E0,-9.162971983E-4,7.635809598E-4,-4.581485991E-4
2.075283041E0,1.527161920E-3,-4.581485991E-4,7.635809598E-4
2.077410593E0,3.054323897E-4,-1.679878100E-3,-4.581485991E-4
2.079538145E0,-9.162971983E-4,7.635809598E-4,-4.581485991E-4
2.081665697E0,3.054323897E-4,-4.581485991E-4,-4.581485991E-4
2.083793301E0,3.054323897E-4,1.985310577E-3,-4.581485991E-4
2.085920853E0,-9.162971983E-4,7.635809598E-4,-4.581485991E-4
2.088048405E0,1.527161920E-3,-4.581485991E-4,-4.581485991E-4
2.090175957E0,-9.162971983E-4,-4.581485991E-4,-4.581485991E-4
2.092303509E0,3.054323897E-4,-4.581485991E-4,7.635809598E-4
2.094431061E0,3.054323897E-4,-4.581485991E-4,-4.581485991E-4
2.096558666E0,-9.162971983E-4,1.985310577E-3,7.635809598E-4
2.098686218E0,3.054323897E-4,7.635809598E-4,-4.581485991E-4
2.100813770E0,3.054323897E-4,-4.581485991E-4,-4.581485991E-4
2.102941322E0,1.527161920E-3,-4.581485991E-4,-4.581485991E-4
2.105068926E0,1.527161920E-3,7.635809598E-4,-4.581485991E-4
2.107196478E0,3.054323897E-4,7.635809598E-4,7.635809598E-4
2.109324030E0,1.527161920E-3,-4.581485991E-4,7.635809598E-4
2.111451582E0,3.054323897E-4,-1.679878100E-3,-4.581485991E-4
2.113579186E0,3.054323897E-4,-4.581485991E-4,-4.581485991E-4
2.115706739E0,3.054323897E-4,-1.679878100E-3,-4.581485991E-4
2.117834291E0,1.527161920E-3,7.635809598E-4,-4.581485991E-4
2.119961843E0,-9.162971983E-4,7.635809598E-4,7.635809598E-4
2.122089395E0,3.054323897E-4,-4.581485991E-4,7.635809598E-4
2.124216999E0,3.054323897E-4,-1.679878100E-3,-4.581485991E-4
2.126344551E0,3.054323897E-4,7.635809598E-4,-4.581485991E-4
2.128472103E0,3.054323897E-4,7.635809598E-4,-4.581485991E-4
2.130599655E0,3.054323897E-4,-4.581485991E-4,7.635809598E-4
2.132727259E0,3.054323897E-4,-1.679878100E-3,-1.679878100E-3
2.134854811E0,1.527161920E-3,-4.581485991E-4,7.635809598E-4
2.136982364E0,3.054323897E-4,-4.581485991E-4,-4.581485991E-4
2.139109916E0,3.054323897E-4,-4.581485991E-4,-4.581485991E-4
2.141237520E0,1.527161920E-3,-1.679878100E-3,7.635809598E-4
2.143365072E0,3.054323897E-4,-4.581485991E-4,-4.581485991E-4
2.145492624E0,-9.162971983E-4,-4.581485991E-4,-4.581485991E-4
2.147620176E0,1.527161920E-3,7.635809598E-4,7.635809598E-4
2.149747728E0,1.527161920E-3,-4.581485991E-4,-1.679878100E-3
2.151875332E0,-9.162971983E-4,-1.679878100E-3,7.635809598E-4
2.154002884E0,3.054323897E-4,-2.901607659E-3,7.635809598E-4
2.156130436E0,3.054323897E-4,-4.581485991E-4,1.985310577E-3
2.158257989E0,1.527161920E-3,7.635809598E-4,7.635809598E-4
2.160385593E0,1.527161920E-3,-4.581485991E-4,7.635809598E-4
2.162513145E0,3.054323897E-4,1.985310577E-3,7.635809598E-4
2.164640697E0,3.054323897E-4,-4.581485991E-4,7.635809598E-4
2.166768249E0,3.054323897E-4,7.635809598E-4,-4.581485991E-4
2.168895801E0,1.527161920E-3,7.635809598E-4,-1.679878100E-3
2.171023405E0,1.527161920E-3,-4.581485991E-4,7.635809598E-4
2.173150957E0,1.527161920E-3,-1.679878100E-3,-4.581485991E-4
2.175278509E0,3.054323897E-4,-4.581485991E-4,7.635809598E-4
2.177406061E0,3.054323897E-4,7.635809598E-4,7.635809598E-4
2.179533666E0,3.054323897E-4,-4.581485991E-4,-4.581485991E-4
2.181661218E0,-9.162971983E-4,7.635809598E-4,-4.581485991E-4
2.183788770E0,3.054323897E-4,-4.581485991E-4,-4.581485991E-4
2.185916322E0,-9.162971983E-4,-4.581485991E-4,7.635809598E-4
2.188043874E0,3.054323897E-4,-4.581485991E-4,-4.581485991E-4
2.190171478E0,-9.162971983E-4,-1.679878100E-3,-4.581485991E-4
2.192299030E0,1.527161920E-3,-4.581485991E-4,-4.581485991E-4
2.194426582E0,3.054323897E-4,-4.581485991E-4,-4.581485991E-4
2.196554134E0,3.054323897E-4,-4.581485991E-4,-4.581485991E-4
2.198681739E0,3.054323897E-4,7.635809598E-4,7.635809598E-4
2.200809291E0,2.748891478E-3,-1.679878100E-3,-4.581485991E-4
2.202936843E0,3.054323897E-4,-1.679878100E-3,7.635809598E-4
2.205064395E0,-9.162971983E-4,-4.581485991E-4,1.985310577E-3
2.207191999E0,3.054323897E-4,7.635809598E-4,-4.581485991E-4
2.209319551E0,3.054323897E-4,-4.581485991E-4,7.635809598E-4
2.211447103E0,3.054323897E-4,-1.679878100E-3,-4.581485991E-4
2.213574655E0,-9.162971983E-4,-4.581485991E-4,-4.581485991E-4
2.215702207E0,-9.162971983E-4,-4.581485991E-4,7.635809598E-4
2.217829811E0,1.527161920E-3,-4.581485991E-4,-4.581485991E-4
2.219957364E0,-9.162971983E-4,1.985310577E-3,-4.581485991E-4
2.222084916E0,3.054323897E-4,1.985310577E-3,-4.581485991E-4
2.224212468E0,3.054323897E-4,-4.581485991E-4,-4.581485991E-4
2.226340020E0,-9.162971983E-4,-4.581485991E-4,7.635809598E-4
2.228467624E0,3.054323897E-4,7.635809598E-4,7.635809598E-4
2.230595176E0,1.527161920E-3,-1.679878100E-3,-4.581485991E-4
2.232722728E0,1.527161920E-3,7.635809598E-4,-4.581485991E-4
2.234850280E0,3.054323897E-4,-4.581485991E-4,7.635809598E-4
2.236977884E0,-9.162971983E-4,-4.581485991E-4,7.635809598E-4
2.239105436E0,3.054323897E-4,7.635809598E-4,-4.581485991E-4
2.241232989E0,1.527161920E-3,-4.581485991E-4,-4.581485991E-4
2.243360541E0,3.054323897E-4,7.635809598E-4,-1.679878100E-3
2.245488145E0,3.054323897E-4,7.635809598E-4,-4.581485991E-4
2.247615697E0,3.054323897E-4,-1.679878100E-3,-4.581485991E-4
2.249743249E0,3.054323897E-4,-4.581485991E-4,-4.581485991E-4
2.251870801E0,3.054323897E-4,-4.581485991E-4,-4.581485991E-4
2.253998353E0,3.054323897E-4,7.635809598E-4,-4.581485991E-4
2.256125957E0,1.527161920E-3,7.635809598E-4,-4.581485991E-4
2.258253509E0,3.054323897E-4,7.635809598E-4,-1.679878100E-3
2.260381061E0,1.527161920E-3,-4.581485991E-4,-1.679878100E-3
2.262508614E0,3.054323897E-4,7.635809598E-4,-4.581485991E-4
2.264636218E0,3.054323897E-4,7.635809598E-4,-4.581485991E-4
2.266763770E0,3.054323897E-4,-4.581485991E-4,7.635809598E-4
2.268891322E0,1.527161920E-3,-1.679878100E-3,-4.581485991E-4
2.271018874E0,3.054323897E-4,-4.581485991E-4,-4.581485991E-4
2.273146478E0,1.527161920E-3,-1.679878100E-3,-4.581485991E-4
2.275274030E0,3.054323897E-4,-1.679878100E-3,-4.581485991E-4
2.277401582E0,1.527161920E-3,-1.679878100E-3,7.635809598E-4
2.279529134E0,3.054323897E-4,7.635809598E-4,-4.581485991E-4
2.281656686E0,1.527161920E-3,-1.679878100E-3,-4.581485991E-4
2.283784291E0,-9.162971983E-4,7.635809598E-4,7.635809598E-4
2.285911843E0,-9.162971983E-4,1.985310577E-3,-4.581485991E-4
2.288039395E0,-9.162971983E-4,-1.679878100E-3,-4.581485991E-4
2.290166947E0,3.054323897E-4,7.635809598E-4,7.635809598E-4
2.292294551E0,3.054323897E-4,-4.581485991E-4,-4.581485991E-4
2.294422103E0,3.054323897E-4,-4.581485991E-4,-4.581485991E-4
2.296549655E0,3.054323897E-4,-1.679878100E-3,-4.581485991E-4
2.298677207E0,1.527161920E-3,-4.581485991E-4,-4.581485991E-4
2.300804759E0,-9.162971983E-4,7.635809598E-4,7.635809598E-4
2.302932364E0,1.527161920E-3,7.635809598E-4,-4.581485991E-4
2.305059916E0,1.527161920E-3,-4.581485991E-4,7.635809598E-4
2.307187468E0,3.054323897E-4,-1.679878100E-3,1.985310577E-3
2.309315072E0,3.054323897E-4,-1.679878100E-3,7.635809598E-4
2.311442624E0,3.054323897E-4,-1.679878100E-3,7.635809598E-4
2.313570176E0,1.527161920E-3,-4.581485991E-4,-4.581485991E-4
2.315697728E0,1.527161920E-3,-1.679878100E-3,-4.581485991E-4
2.317825280E0,3.054323897E-4,-4.581485991E-4,-4.581485991E-4
2.319952884E0,3.054323897E-4,-1.679878100E-3,-4.581485991E-4
2.322080436E0,3.054323897E-4,-1.679878100E-3,-4.581485991E-4
2.324207989E0,1.527161920E-3,7.635809598E-4,-4.581485991E-4
2.326335541E0,3.054323897E-4,7.635809598E-4,7.635809598E-4
2.328463093E0,3.054323897E-4,1.985310577E-3,1.985310577E-3
2.330590697E0,-9.162971983E-4,-4.581485991E-4,-4.581485991E-4
2.332718249E0,-9.162971983E-4,-4.581485991E-4,-4.581485991E-4
2.334845801E0,3.054323897E-4,7.635809598E-4,7.635809598E-4
2.336973405E0,1.527161920E-3,-4.581485991E-4,-4.581485991E-4
2.339100957E0,3.054323897E-4,-4.581485991E-4,7.635809598E-4
2.341228509E0,-9.162971983E-4,-4.581485991E-4,-4.581485991E-4
2.343356061E0,-9.162971983E-4,7.635809598E-4,7.635809598E-4
2.345483614E0,3.054323897E-4,-1.679878100E-3,7.635809598E-4
2.347611218E0,3.054323897E-4,-1.679878100E-3,-4.581485991E-4
2.349738770E0,3.054323897E-4,-4.581485991E-4,7.635809598E-4
2.351866322E0,1.527161920E-3,7.635809598E-4,7.635809598E-4
2.353993874E0,1.527161920E-3,-4.581485991E-4,-1.679878100E-3
2.356121426E0,3.054323897E-4,-1.679878100E-3,-1.679878100E-3
2.358249030E0,3.054323897E-4,-4.581485991E-4,-4.581485991E-4
2.360376582E0,3.054323897E-4,7.635809598E-4,-1.679878100E-3
2.362504134E0,-9.162971983E-4,-4.581485991E-4,-4.581485991E-4
2.364631686E0,3.054323897E-4,-4.581485991E-4,-4.581485991E-4
2.366759291E0,-9.162971983E-4,-4.581485991E-4,-4.581485991E-4
2.368886843E0,3.054323897E-4,7.635809598E-4,7.635809598E-4
2.371014395E0,3.054323897E-4,7.635809598E-4,-4.581485991E-4
2.373141999E0,3.054323897E-4,-4.581485991E-4,-4.581485991E-4
2.375269551E0,3.054323897E-4,-4.581485991E-4,-4.581485991E-4
2.377397103E0,3.054323897E-4,-4.581485991E-4,-4.581485991E-4
2.379524655E0,-9.162971983E-4,-4.581485991E-4,-4.581485991E-4
2.381652207E0,-2.138026757E-3,7.635809598E-4,-4.581485991E-4
2.383779811E0,-9.162971983E-4,-1.679878100E-3,7.635809598E-4
2.385907364E0,3.054323897E-4,-4.581485991E-4,-1.679878100E-3
2.388034916E0,1.527161920E-3,-2.901607659E-3,-4.581485991E-4
2.390162468E0,3.054323897E-4,7.635809598E-4,-4.581485991E-4
2.392290072E0,-9.162971983E-4,7.635809598E-4,-4.581485991E-4
2.394417624E0,3.054323897E-4,7.635809598E-4,7.635809598E-4
2.396545176E0,-9.162971983E-4,7.635809598E-4,7.635809598E-4
2.398672728E0,3.054323897E-4,-4.581485991E-4,-4.581485991E-4
2.400800332E0,-9.162971983E-4,-4.581485991E-4,-4.581485991E-4
2.402927884E0,3.054323897E-4,-4.581485991E-4,-4.581485991E-4
2.405055436E0,1.527161920E-3,7.635809598E-4,-4.581485991E-4
2.407182989E0,3.054323897E-4,-4.581485991E-4,7.635809598E-4
2.409310541E0,3.054323897E-4,7.635809598E-4,-1.679878100E-3
2.411438145E0,1.527161920E-3,7.635809598E-4,7.635809598E-4
2.413565697E0,3.054323897E-4,7.635809598E-4,-4.581485991E-4
2.415693249E0,1.527161920E-3,-4.581485991E-4,-4.581485991E-4
2.417820801E0,1.527161920E-3,-4.581485991E-4,-4.581485991E-4
2.419948405E0,-9.162971983E-4,-4.581485991E-4,7.635809598E-4
2.422075957E0,-9.162971983E-4,7.635809598E-4,-4.581485991E-4
2.424203509E0,-9.162971983E-4,-4.581485991E-4,-4.581485991E-4
2.426331061E0,1.527161920E-3,7.635809598E-4,-4.581485991E-4
2.428458614E0,-9.162971983E-4,7.635809598E-4,7.635809598E-4
2.430586218E0,3.054323897E-4,-4.581485991E-4,-4.581485991E-4
2.432713770E0,3.054323897E-4,-4.581485991E-4,7.635809598E-4
2.434841322E0,-9.162971983E-4,-4.581485991E-4,-4.581485991E-4
2.436968874E0,3.054323897E-4,-4.581485991E-4,-4.581485991E-4
2.439096478E0,-9.162971983E-4,-4.581485991E-4,7.635809598E-4
2.441224030E0,1.527161920E-3,7.635809598E-4,-4.581485991E-4
2.443351582E0,1.527161920E-3,7.635809598E-4,7.635809598E-4
2.445479134E0,3.054323897E-4,7.635809598E-4,-1.679878100E-3
2.447606739E0,-9.162971983E-4,7.635809598E-4,-4.581485991E-4
2.449734291E0,3.054323897E-4,-4.581485991E-4,-4.581485991E-4
2.451861843E0,-9.162971983E-4,-4.581485991E-4,7.635809598E-4
2.453989395E0,-2.138026757E-3,7.635809598E-4,7.635809598E-4
2.456116947E0,-9.162971983E-4,7.635809598E-4,7.635809598E-4
2.458244551E0,3.054323897E-4,-4.581485991E-4,-4.581485991E-4
2.460372103E0,1.527161920E-3,-4.581485991E-4,-4.581485991E-4
2.462499655E0,3.054323897E-4,7.635809598E-4,7.635809598E-4
2.464627207E0,1.527161920E-3,7.635809598E-4,-4.581485991E-4
2.466754811E0,3.054323897E-4,-4.581485991E-4,-4.581485991E-4
2.468882364E0,-9.162971983E-4,-4.581485991E-4,7.635809598E-4
2.471009916E0,-9.162971983E-4,7.635809598E-4,-4.581485991E-4
2.473137468E0,3.054323897E-4,-4.581485991E-4,-4.581485991E-4
2.475265072E0,1.527161920E-3,-4.581485991E-4,-4.581485991E-4
2.477392624E0,3.054323897E-4,-4.581485991E-4,-4.581485991E-4
2.479520176E0,3.054323897E-4,-4.581485991E-4,7.635809598E-4
2.481647728E0,3.054323897E-4,-4.581485991E-4,-4.581485991E-4
2.483775332E0,3.054323897E-4,-4.581485991E-4,7.635809598E-4
2.485902884E0,-9.162971983E-4,-4.581485991E-4,1.985310577E-3
2.488030436E0,3.054323897E-4,-4.581485991E-4,7.635809598E-4
2.490157989E0,3.054323897E-4,-4.581485991E-4,-4.581485991E-4
2.492285541E0,1.527161920E-3,-1.679878100E-3,-4.581485991E-4
2.494413145E0,3.054323897E-4,-4.581485991E-4,7.635809598E-4
2.496540697E0,1.527161920E-3,-4.581485991E-4,-1.679878100E-3
2.498668249E0,3.054323897E-4,-1.679878100E-3,-4.581485991E-4
2.500795801E0,3.054323897E-4,-4.581485991E-4,-4.581485991E-4
2.502923405E0,1.527161920E-3,-4.581485991E-4,-4.581485991E-4
2.505050957E0,3.054323897E-4,-4.581485991E-4,-1.679878100E-3
2.507178509E0,-9.162971983E-4,-4.581485991E-4,7.635809598E-4
2.509306061E0,3.054323897E-4,7.635809598E-4,-4.581485991E-4
2.511433666E0,3.054323897E-4,-1.679878100E-3,-4.581485991E-4
2.513561218E0,1.527161920E-3,-2.901607659E-3,-1.679878100E-3
2.515688770E0,3.054323897E-4,7.635809598E-4,7.635809598E-4
2.517816322E0,3.054323897E-4,7.635809598E-4,7.635809598E-4
2.519943926E0,1.527161920E-3,-4.581485991E-4,-4.581485991E-4
2.522071478E0,1.527161920E-3,-1.679878100E-3,-4.581485991E-4
2.524199030E0,1.527161920E-3,-4.581485991E-4,-1.679878100E-3
2.526326582E0,1.527161920E-3,-4.581485991E-4,7.635809598E-4
2.528454186E0,-9.162971983E-4,-4.581485991E-4,-4.581485991E-4
2.530581739E0,-9.162971983E-4,1.985310577E-3,7.635809598E-4
2.532709291E0,3.054323897E-4,-4.581485991E-4,-4.581485991E-4
2.534836843E0,-9.162971983E-4,-4.581485991E-4,-4.581485991E-4
2.536964447E0,3.054323897E-4,-4.581485991E-4,7.635809598E-4
2.539091999E0,3.054323897E-4,-4.581485991E-4,-4.581485991E-4
2.541219551E0,-9.162971983E-4,-4.581485991E-4,-4.581485991E-4
2.543347103E0,-9.162971983E-4,7.635809598E-4,-4.581485991E-4
2.545474707E0,3.054323897E-4,7.635809598E-4,-1.679878100E-3
2.547602259E0,3.054323897E-4,-4.581485991E-4,-4.581485991E-4
2.549729811E0,3.054323897E-4,-1.679878100E-3,7.635809598E-4
2.551857364E0,1.527161920E-3,-4.581485991E-4,-4.581485991E-4
2.553984916E0,-9.162971983E-4,-4.581485991E-4,-4.581485991E-4
2.556112520E0,1.527161920E-3,-2.901607659E-3,-4.581485991E-4
2.558240072E0,-2.138026757E-3,-4.581485991E-4,7.635809598E-4
2.560367624E0,3.054323897E-4,-4.581485991E-4,7.635809598E-4
2.562495228E0,3.054323897E-4,-4.581485991E-4,-4.581485991E-4
2.564622780E0,-9.162971983E-4,7.635809598E-4,-4.581485991E-4
2.566750332E0,-9.162971983E-4,7.635809598E-4,7.635809598E-4
2.568877884E0,3.054323897E-4,7.635809598E-4,-4.581485991E-4
2.571005489E0,-2.138026757E-3,7.635809598E-4,7.635809598E-4
2.573133041E0,-9.162971983E-4,7.635809598E-4,-4.581485991E-4
2.575260593E0,3.054323897E-4,-1.679878100E-3,7.635809598E-4
2.577388145E0,3.054323897E-4,7.635809598E-4,7.635809598E-4
2.579515697E0,-9.162971983E-4,-4.581485991E-4,-4.581485991E-4
2.581643301E0,3.054323897E-4,7.635809598E-4,-4.581485991E-4
2.583770853E0,3.054323897E-4,-1.679878100E-3,-1.679878100E-3
2.585898405E0,1.527161920E-3,7.635809598E-4,7.635809598E-4
2.588025957E0,3.054323897E-4,-1.679878100E-3,-4.581485991E-4
2.590153561E0,3.054323897E-4,-1.679878100E-3,7.635809598E-4
2.592281114E0,2.748891478E-3,-4.581485991E-4,-4.581485991E-4
2.594408666E0,3.054323897E-4,7.635809598E-4,7.635809598E-4
2.596536218E0,3.054323897E-4,7.635809598E-4,7.635809598E-4
2.598663822E0,-9.162971983E-4,1.985310577E-3,7.635809598E-4
2.600791374E0,3.054323897E-4,-4.581485991E-4,7.635809598E-4
2.602918926E0,3.054323897E-4,-4.581485991E-4,-4.581485991E-4
2.605046478E0,3.054323897E-4,-4.581485991E-4,-4.581485991E-4
2.607174030E0,3.054323897E-4,-4.581485991E-4,-4.581485991E-4
2.609301634E0,1.527161920E-3,-1.679878100E-3,7.635809598E-4
2.611429186E0,-9.162971983E-4,7.635809598E-4,7.635809598E-4
2.613556739E0,-9.162971983E-4,-4.581485991E-4,7.635809598E-4
2.615684291E0,-9.162971983E-4,-4.581485991E-4,7.635809598E-4
2.617811895E0,3.054323897E-4,7.635809598E-4,7.635809598E-4
2.619939447E0,3.054323897E-4,7.635809598E-4,7.635809598E-4
2.622066999E0,2.748891478E-3,-4.581485991E-4,-4.581485991E-4
2.624194551E0,-9.162971983E-4,-1.679878100E-3,7.635809598E-4
2.626322155E0,3.054323897E-4,-4.581485991E-4,1.985310577E-3
2.628449707E0,3.054323897E-4,7.635809598E-4,-4.581485991E-4
2.630577259E0,3.054323897E-4,1.985310577E-3,-4.581485991E-4
2.632704811E0,3.054323897E-4,-1.679878100E-3,-4.581485991E-4
2.634832416E0,3.054323897E-4,-1.679878100E-3,-4.581485991E-4
2.636959968E0,3.054323897E-4,7.635809598E-4,-4.581485991E-4
2.639087520E0,3.054323897E-4,7.635809598E-4,7.635809598E-4
2.641215072E0,-9.162971983E-4,-4.581485991E-4,-4.581485991E-4
2.643342676E0,1.527161920E-3,1.985310577E-3,-4.581485991E-4
2.645470228E0,3.054323897E-4,7.635809598E-4,7.635809598E-4
2.647597780E0,3.054323897E-4,-4.581485991E-4,7.635809598E-4
2.649725332E0,-2.138026757E-3,-4.581485991E-4,-4.581485991E-4
2.651852936E0,3.054323897E-4,-4.581485991E-4,-4.581485991E-4
2.653980489E0,-9.162971983E-4,-4.581485991E-4,7.635809598E-4
2.656108041E0,3.054323897E-4,1.985310577E-3,-4.581485991E-4
2.658235593E0,3.054323897E-4,-4.581485991E-4,-4.581485991E-4
2.660363197E0,1.527161920E-3,-4.581485991E-4,-4.581485991E-4
2.662490749E0,-9.162971983E-4,-4.581485991E-4,7.635809598E-4
2.664618301E0,3.054323897E-4,-1.679878100E-3,7.635809598E-4
2.666745853E0,1.527161920E-3,-1.679878100E-3,7.635809598E-4
2.668873457E0,3.054323897E-4,-4.581485991E-4,-4.581485991E-4
2.671001009E0,-9.162971983E-4,7.635809598E-4,7.635809598E-4
2.673128561E0,3.054323897E-4,-1.679878100E-3,7.635809598E-4
2.675256114E0,-9.162971983E-4,7.635809598E-4,7.635809598E-4
2.677383718E0,2.748891478E-3,-4.581485991E-4,-4.581485991E-4
2.679511270E0,1.527161920E-3,-4.581485991E-4,-4.581485991E-4
2.681638822E0,3.054323897E-4,-4.581485991E-4,7.635809598E-4
2.683766374E0,3.054323897E-4,7.635809598E-4,-1.679878100E-3
2.685893978E0,3.054323897E-4,-4.581485991E-4,-1.679878100E-3
2.688021530E0,-9.162971983E-4,-4.581485991E-4,-4.581485991E-4
2.690149082E0,3.054323897E-4,-1.679878100E-3,-4.581485991E-4
2.692276634E0,3.054323897E-4,7.635809598E-4,-4.581485991E-4
2.694404239E0,3.054323897E-4,-4.581485991E-4,-4.581485991E-4
2.696531791E0,1.527161920E-3,-4.581485991E-4,-4.581485991E-4
2.698659343E0,3.054323897E-4,-4.581485991E-4,-4.581485991E-4
2.700786895E0,3.054323897E-4,-1.679878100E-3,-4.581485991E-4
2.702914499E0,-9.162971983E-4,-1.679878100E-3,-4.581485991E-4
2.705042051E0,-9.162971983E-4,-4.581485991E-4,7.635809598E-4
2.707169603E0,3.054323897E-4,-4.581485991E-4,-4.581485991E-4
2.709297155E0,-9.162971983E-4,7.635809598E-4,-4.581485991E-4
2.711424707E0,1.527161920E-3,7.635809598E-4,-4.581485991E-4
2.713552311E0,3.054323897E-4,-1.679878100E-3,-4.581485991E-4
2.715679864E0,3.054323897E-4,-1.679878100E-3,7.635809598E-4
2.717807416E0,3.054323897E-4,7.635809598E-4,-4.581485991E-4
2.719934968E0,3.054323897E-4,-4.581485991E-4,7.635809598E-4
2.722062572E0,3.054323897E-4,7.635809598E-4,7.635809598E-4
2.724190124E0,3.054323897E-4,-4.581485991E-4,7.635809598E-4
2.726317676E0,3.054323897E-4,-4.581485991E-4,7.635809598E-4
2.728445228E0,-9.162971983E-4,7.635809598E-4,-4.581485991E-4
2.730572832E0,3.054323897E-4,7.635809598E-4,7.635809598E-4
2.732700384E0,1.527161920E-3,7.635809598E-4,-4.581485991E-4
2.734827936E0,3.054323897E-4,1.985310577E-3,7.635809598E-4
2.736955489E0,-9.162971983E-4,7.635809598E-4,-4.581485991E-4
2.739083093E0,-9.162971983E-4,-4.581485991E-4,-4.581485991E-4
2.741210645E0,3.054323897E-4,-4.581485991E-4,7.635809598E-4
2.743338197E0,1.527161920E-3,-4.581485991E-4,-4.581485991E-4
2.745465749E0,1.527161920E-3,7.635809598E-4,-1.679878100E-3
2.747593353E0,3.054323897E-4,-4.581485991E-4,-2.901607659E-3
2.749720905E0,3.054323897E-4,-4.581485991E-4,-4.581485991E-4
2.751848457E0,-9.162971983E-4,7.635809598E-4,-4.581485991E-4
2.753976009E0,3.054323897E-4,-4.581485991E-4,-4.581485991E-4
2.756103614E0,3.054323897E-4,-4.581485991E-4,-4.581485991E-4
2.758231166E0,-9.162971983E-4,-4.581485991E-4,7.635809598E-4
2.760358718E0,-9.162971983E-4,7.635809598E-4,-1.679878100E-3
2.762486270E0,-9.162971983E-4,7.635809598E-4,7.635809598E-4
2.764613874E0,-9.162971983E-4,-4.581485991E-4,-4.581485991E-4
2.766741426E0,3.054323897E-4,7.635809598E-4,-4.581485991E-4
2.768868978E0,-9.162971983E-4,-4.581485991E-4,7.635809598E-4
2.770996530E0,-9.162971983E-4,-4.581485991E-4,-4.581485991E-4
2.773124134E0,3.054323897E-4,-4.581485991E-4,-1.679878100E-3
2.775251686E0,3.054323897E-4,-4.581485991E-4,7.635809598E-4
2.777379239E0,1.527161920E-3,-4.581485991E-4,-4.581485991E-4
2.779506791E0,3.054323897E-4,-4.581485991E-4,7.635809598E-4
2.781634395E0,3.054323897E-4,7.635809598E-4,-4.581485991E-4
2.783761947E0,3.054323897E-4,-4.581485991E-4,7.635809598E-4
2.785889499E0,-9.162971983E-4,7.635809598E-4,7.635809598E-4
2.788017051E0,-9.162971983E-4,7.635809598E-4,7.635809598E-4
2.790144655E0,3.970621154E-3,-4.581485991E-4,-4.581485991E-4
2.792272207E0,1.527161920E-3,-1.679878100E-3,7.635809598E-4
2.794399759E0,3.054323897E-4,7.635809598E-4,7.635809598E-4
2.796527311E0,-2.138026757E-3,-4.581485991E-4,7.635809598E-4
2.798654864E0,-9.162971983E-4,-4.581485991E-4,-4.581485991E-4
2.800782468E0,-9.162971983E-4,7.635809598E-4,7.635809598E-4
2.802910020E0,1.527161920E-3,-4.581485991E-4,-4.581485991E-4
2.805037572E0,-9.162971983E-4,-1.679878100E-3,7.635809598E-4
2.807165176E0,1.527161920E-3,-1.679878100E-3,-4.581485991E-4
2.809292728E0,3.054323897E-4,-4.581485991E-4,-4.581485991E-4
2.811420280E0,-2.138026757E-3,-4.581485991E-4,-4.581485991E-4
2.813547832E0,-9.162971983E-4,7.635809598E-4,7.635809598E-4
2.815675384E0,3.054323897E-4,-4.581485991E-4,7.635809598E-4
2.817802989E0,1.527161920E-3,-4.581485991E-4,7.635809598E-4
2.819930541E0,3.054323897E-4,7.635809598E-4,-4.581485991E-4
2.822058093E0,3.054323897E-4,-4.581485991E-4,-2.901607659E-3
2.824185697E0,3.054323897E-4,1.985310577E-3,-4.581485991E-4
2.826313249E0,1.527161920E-3,7.635809598E-4,7.635809598E-4
2.828440801E0,1.527161920E-3,-4.581485991E-4,-4.581485991E-4
2.830568353E0,3.054323897E-4,-4.581485991E-4,1.985310577E-3
2.832695905E0,-9.162971983E-4,-4.581485991E-4,-4.581485991E-4
2.834823509E0,3.054323897E-4,-4.581485991E-4,7.635809598E-4
2.836951061E0,3.054323897E-4,-4.581485991E-4,-4.581485991E-4
2.839078614E0,-9.162971983E-4,-4.581485991E-4,-4.581485991E-4
2.841206218E0,3.054323897E-4,-4.581485991E-4,-1.679878100E-3
2.843333770E0,3.054323897E-4,7.635809598E-4,-4.581485991E-4
2.845461322E0,3.054323897E-4,-4.581485991E-4,7.635809598E-4
2.847588874E0,1.527161920E-3,-1.679878100E-3,-4.581485991E-4
2.849716426E0,3.054323897E-4,7.635809598E-4,-1.679878100E-3
2.851844030E0,3.054323897E-4,-4.581485991E-4,7.635809598E-4
2.853971582E0,-9.162971983E-4,7.635809598E-4,1.985310577E-3
2.856099134E0,1.527161920E-3,-1.679878100E-3,-4.581485991E-4
2.858226686E0,1.527161920E-3,-4.581485991E-4,-4.581485991E-4
2.860354291E0,-9.162971983E-4,-1.679878100E-3,-1.679878100E-3
2.862481843E0,-9.162971983E-4,-4.581485991E-4,7.635809598E-4
2.864609395E0,1.527161920E-3,1.985310577E-3,-1.679878100E-3
2.866736999E0,3.054323897E-4,7.635809598E-4,7.635809598E-4
2.868864551E0,-2.138026757E-3,-1.679878100E-3,7.635809598E-4
2.870992103E0,-9.162971983E-4,-4.581485991E-4,-4.581485991E-4
2.873119655E0,3.054323897E-4,-4.581485991E-4,-4.581485991E-4
2.875247259E0,-9.162971983E-4,-4.581485991E-4,-4.581485991E-4
2.877374811E0,3.054323897E-4,-1.679878100E-3,-4.581485991E-4
2.879502364E0,-2.138026757E-3,-4.581485991E-4,-4.581485991E-4
2.881629916E0,-9.162971983E-4,-4.581485991E-4,-4.581485991E-4
2.883757520E0,3.054323897E-4,-4.581485991E-4,-4.581485991E-4
2.885885072E0,-9.162971983E-4,-1.679878100E-3,-4.581485991E-4
2.888012624E0,1.527161920E-3,-1.679878100E-3,-4.581485991E-4
2.890140176E0,1.527161920E-3,-1.679878100E-3,-4.581485991E-4
2.892267780E0,-9.162971983E-4,-4.581485991E-4,7.635809598E-4
2.894395332E0,3.054323897E-4,-2.901607659E-3,-1.679878100E-3
2.896522884E0,3.054323897E-4,7.635809598E-4,-4.581485991E-4
2.898650436E0,3.054323897E-4,7.635809598E-4,-4.581485991E-4
2.900778041E0,3.054323897E-4,-4.581485991E-4,-4.581485991E-4
2.902905593E0,1.527161920E-3,-4.581485991E-4,7.635809598E-4
2.905033145E0,3.054323897E-4,7.635809598E-4,7.635809598E-4
2.907160697E0,1.527161920E-3,-4.581485991E-4,7.635809598E-4
2.909288301E0,3.054323897E-4,-4.581485991E-4,-4.581485991E-4
2.911415853E0,-2.138026757E-3,-4.581485991E-4,7.635809598E-4
2.913543405E0,2.748891478E-3,7.635809598E-4,-4.581485991E-4
2.915670957E0,3.054323897E-4,7.635809598E-4,-4.581485991E-4
2.917798561E0,3.054323897E-4,-4.581485991E-4,7.635809598E-4
2.919926114E0,3.054323897E-4,-4.581485991E-4,7.635809598E-4
2.922053666E0,3.054323897E-4,-1.679878100E-3,-1.679878100E-3
2.924181218E0,1.527161920E-3,-1.679878100E-3,7.635809598E-4
2.926308822E0,-9.162971983E-4,-1.679878100E-3,-1.679878100E-3
2.928436374E0,1.527161920E-3,-1.679878100E-3,-4.581485991E-4
2.930563926E0,3.054323897E-4,-4.581485991E-4,-4.581485991E-4
2.932691530E0,1.527161920E-3,7.635809598E-4,-4.581485991E-4
2.934819082E0,1.527161920E-3,7.635809598E-4,-4.581485991E-4
2.936946634E0,3.054323897E-4,-4.581485991E-4,-1.679878100E-3
2.939074186E0,3.054323897E-4,-4.581485991E-4,-4.581485991E-4
2.941201791E0,-9.162971983E-4,-1.679878100E-3,-4.581485991E-4
2.943329343E0,1.527161920E-3,7.635809598E-4,-4.581485991E-4
2.945456895E0,3.054323897E-4,-4.581485991E-4,-4.581485991E-4
2.947584447E0,-9.162971983E-4,-4.581485991E-4,-4.581485991E-4
2.949711999E0,1.527161920E-3,7.635809598E-4,-4.581485991E-4
2.951839603E0,3.054323897E-4,7.635809598E-4,-4.581485991E-4
2.953967155E0,1.527161920E-3,-1.679878100E-3,-1.679878100E-3
2.956094707E0,3.054323897E-4,7.635809598E-4,7.635809598E-4
2.958222311E0,3.054323897E-4,-4.581485991E-4,-1.679878100E-3
2.960349864E0,1.527161920E-3,7.635809598E-4,7.635809598E-4
2.962477416E0,-9.162971983E-4,-4.581485991E-4,-4.581485991E-4
2.964604968E0,1.527161920E-3,-2.901607659E-3,-4.581485991E-4
2.966732520E0,3.054323897E-4,-4.581485991E-4,-4.581485991E-4
2.968860124E0,3.054323897E-4,7.635809598E-4,-4.581485991E-4
2.970987676E0,-9.162971983E-4,7.635809598E-4,7.635809598E-4
2.973115228E0,1.527161920E-3,-4.581485991E-4,-1.679878100E-3
2.975242832E0,3.054323897E-4,-4.581485991E-4,-1.679878100E-3
2.977370384E0,3.054323897E-4,7.635809598E-4,-4.581485991E-4
2.979497936E0,3.054323897E-4,7.635809598E-4,-4.581485991E-4
2.981625489E0,-9.162971983E-4,-1.679878100E-3,7.635809598E-4
2.983753093E0,3.054323897E-4,-4.581485991E-4,1.985310577E-3
2.985880645E0,-9.162971983E-4,-4.581485991E-4,7.635809598E-4
2.988008197E0,-9.162971983E-4,-4.581485991E-4,7.635809598E-4
2.990135749E0,3.054323897E-4,-4.581485991E-4,-4.581485991E-4
2.992263353E0,3.054323897E-4,-4.581485991E-4,7.635809598E-4
2.994390905E0,3.054323897E-4,-1.679878100E-3,-4.581485991E-4
2.996518457E0,-9.162971983E-4,-1.679878100E-3,-4.581485991E-4
2.998646009E0,3.054323897E-4,7.635809598E-4,7.635809598E-4
3.000773614E0,3.054323897E-4,-1.679878100E-3,-2.901607659E-3
3.002901166E0,3.054323897E-4,-1.679878100E-3,-4.581485991E-4
3.005028718E0,-9.162971983E-4,-4.581485991E-4,7.635809598E-4
3.007156270E0,3.054323897E-4,-4.581485991E-4,7.635809598E-4
3.009283874E0,1.527161920E-3,7.635809598E-4,-4.581485991E-4
3.011411426E0,3.054323897E-4,7.635809598E-4,7.635809598E-4
3.013538978E0,3.054323897E-4,-4.581485991E-4,-4.581485991E-4
3.015666582E0,3.054323897E-4,7.635809598E-4,7.635809598E-4
3.017794134E0,-9.162971983E-4,-1.679878100E-3,-1.679878100E-3
3.019921686E0,3.054323897E-4,1.985310577E-3,-4.581485991E-4
3.022049239E0,3.054323897E-4,7.635809598E-4,-1.679878100E-3
3.024176791E0,3.054323897E-4,7.635809598E-4,7.635809598E-4
3.026304395E0,1.527161920E-3,-4.581485991E-4,-4.581485991E-4
3.028431947E0,-9.162971983E-4,-4.581485991E-4,-4.581485991E-4
3.030559499E0,1.527161920E-3,-1.679878100E-3,-4.581485991E-4
3.032687103E0,3.054323897E-4,-1.679878100E-3,-4.581485991E-4
3.034814655E0,3.054323897E-4,-4.581485991E-4,-4.581485991E-4
3.036942207E0,-9.162971983E-4,-1.679878100E-3,-4.581485991E-4
3.039069759E0,-9.162971983E-4,-4.581485991E-4,-4.581485991E-4
3.041197311E0,-9.162971983E-4,-4.581485991E-4,7.635809598E-4
3.043324916E0,-9.162971983E-4,7.635809598E-4,7.635809598E-4
3.045452468E0,3.054323897E-4,7.635809598E-4,7.635809598E-4
3.047580020E0,3.054323897E-4,-4.581485991E-4,-4.581485991E-4
3.049707572E0,1.527161920E-3,7.635809598E-4,-4.581485991E-4
3.051835176E0,3.054323897E-4,-4.581485991E-4,-4.581485991E-4
3.053962728E0,3.054323897E-4,-4.581485991E-4,-4.581485991E-4
3.056090280E0,-9.162971983E-4,7.635809598E-4,-4.581485991E-4
3.058217884E0,-9.162971983E-4,7.635809598E-4,-4.581485991E-4
3.060345436E0,-9.162971983E-4,-1.679878100E-3,-4.581485991E-4
3.062472989E0,3.054323897E-4,-4.581485991E-4,-4.581485991E-4
3.064600541E0,3.054323897E-4,-4.581485991E-4,-4.581485991E-4
3.066728145E0,3.054323897E-4,-2.901607659E-3,-4.581485991E-4
3.068855697E0,3.054323897E-4,-4.123337101E-3,-4.581485991E-4
3.070983249E0,3.054323897E-4,-5.345067009E-3,7.635809598E-4
3.073110801E0,-9.162971983E-4,-4.123337101E-3,7.635809598E-4
3.075238405E0,3.054323897E-4,-4.123337101E-3,1.985310577E-3
3.077365957E0,-9.162971983E-4,-4.581485991E-4,-4.581485991E-4
3.079493509E0,3.054323897E-4,7.635809598E-4,-4.581485991E-4
3.081621061E0,-9.162971983E-4,7.635809598E-4,7.635809598E-4
3.083748666E0,3.054323897E-4,1.985310577E-3,7.635809598E-4
3.085876218E0,3.054323897E-4,-4.581485991E-4,-4.581485991E-4
3.088003822E0,-9.162971983E-4,-1.679878100E-3,-4.581485991E-4
3.090131374E0,3.054323897E-4,-2.901607659E-3,-4.581485991E-4
3.092258926E0,3.054323897E-4,-1.679878100E-3,7.635809598E-4
3.094386478E0,3.970621154E-3,-4.581485991E-4,-1.679878100E-3
3.096514030E0,1.527161920E-3,-1.679878100E-3,-4.581485991E-4
3.098641634E0,3.054323897E-4,-4.581485991E-4,-4.581485991E-4
3.100769186E0,-9.162971983E-4,7.635809598E-4,7.635809598E-4
3.102896739E0,-9.162971983E-4,-4.581485991E-4,-4.581485991E-4
3.105024291E0,3.054323897E-4,-4.581485991E-4,-4.581485991E-4
3.107151843E0,-9.162971983E-4,-4.581485991E-4,-4.581485991E-4
3.109279447E0,-9.162971983E-4,-4.581485991E-4,-4.581485991E-4
3.111406999E0,1.527161920E-3,7.635809598E-4,-4.581485991E-4
3.113534551E0,1.527161920E-3,7.635809598E-4,7.635809598E-4
3.115662155E0,3.054323897E-4,7.635809598E-4,-4.581485991E-4
3.117789707E0,3.054323897E-4,1.985310577E-3,7.635809598E-4
3.119917259E0,-9.162971983E-4,3.207040019E-3,-4.581485991E-4
3.122044811E0,3.054323897E-4,5.650499370E-3,7.635809598E-4
3.124172416E0,3.054323897E-4,4.428769462E-3,-4.581485991E-4
3.126299968E0,1.527161920E-3,3.207040019E-3,7.635809598E-4
3.128427520E0,-9.162971983E-4,4.428769462E-3,-4.581485991E-4
3.130555124E0,1.527161920E-3,5.650499370E-3,7.635809598E-4
3.132682676E0,1.527161920E-3,5.650499370E-3,7.635809598E-4
3.134810228E0,3.054323897E-4,5.650499370E-3,7.635809598E-4
3.136937780E0,3.054323897E-4,5.650499370E-3,1.985310577E-3
3.139065332E0,3.054323897E-4,5.650499370E-3,7.635809598E-4
3.141192936E0,2.748891478E-3,5.650499370E-3,7.635809598E-4
3.143320489E0,3.054323897E-4,5.650499370E-3,7.635809598E-4
3.145448041E0,3.054323897E-4,5.650499370E-3,7.635809598E-4
3.147575645E0,3.054323897E-4,3.207040019E-3,7.635809598E-4
3.149703197E0,3.054323897E-4,6.872228812E-3,1.985310577E-3
3.151830749E0,3.054323897E-4,6.872228812E-3,7.635809598E-4
3.153958301E0,1.527161920E-3,5.650499370E-3,7.635809598E-4
3.156085905E0,3.054323897E-4,5.650499370E-3,7.635809598E-4
3.158213457E0,1.527161920E-3,5.650499370E-3,7.635809598E-4
3.160341009E0,3.054323897E-4,3.207040019E-3,1.985310577E-3
3.162468561E0,3.054323897E-4,4.428769462E-3,1.985310577E-3
3.164596166E0,1.527161920E-3,4.428769462E-3,1.985310577E-3
3.166723718E0,-9.162971983E-4,1.985310577E-3,1.985310577E-3
3.168851270E0,1.527161920E-3,3.207040019E-3,1.985310577E-3
3.170978822E0,3.054323897E-4,1.985310577E-3,1.985310577E-3
3.173106426E0,-9.162971983E-4,7.635809598E-4,1.985310577E-3
3.175233978E0,2.748891478E-3,7.635809598E-4,1.985310577E-3
3.177361530E0,3.054323897E-4,7.635809598E-4,3.207040019E-3
3.179489082E0,-9.162971983E-4,-2.901607659E-3,1.908952370E-2
3.181616686E0,-4.581485875E-3,-7.788525894E-3,9.483675659E-2
3.183744239E0,-7.024944760E-3,9.315688163E-3,1.718057245E-1
3.185871791E0,6.414080039E-3,-2.901607659E-3,2.573267817E-1
3.187999395E0,2.748891478E-3,6.872228812E-3,3.575085998E-1
3.190126947E0,-3.359756200E-3,1.175914705E-2,4.589121640E-1
3.192254499E0,-2.138026757E-3,3.207040019E-3,5.505418777E-1
3.194382051E0,-9.162971983E-4,1.298087649E-2,6.397281289E-1
3.196509603E0,-3.359756200E-3,2.031125315E-2,7.203623056E-1
3.198637207E0,-2.138026757E-3,1.786779426E-2,7.973312736E-1
3.200764759E0,-3.359756200E-3,1.908952370E-2,8.681915402E-1
3.202892311E0,3.054323897E-4,2.886336111E-2,9.341649413E-1
3.205019916E0,-2.138026757E-3,3.252854943E-2,9.928079844E-1
3.207147468E0,-9.162971983E-4,2.275471389E-2,1.049007535E0
3.209275020E0,1.527161920E-3,3.252854943E-2,1.099098444E0
3.211402624E0,3.054323897E-4,3.130681813E-2,1.146745920E0
3.213530176E0,2.748891478E-3,3.375028074E-2,1.189506412E0
3.215657728E0,-2.138026757E-3,3.619373962E-2,1.228601813E0
3.217785280E0,3.054323897E-4,3.497200832E-2,1.265253663E0
3.219912832E0,-9.162971983E-4,4.474584386E-2,1.299462080E0
3.222040436E0,1.527161920E-3,4.474584386E-2,1.327561855E0
3.224167989E0,1.527161920E-3,4.963276163E-2,1.356883407E0
3.226295541E0,-4.581485875E-3,3.741546720E-2,1.381317973E0
3.228423145E0,-9.162971983E-4,3.863719851E-2,1.403309107E0
3.230550697E0,1.527161920E-3,5.940660089E-2,1.422856808E0
3.232678249E0,-4.581485875E-3,4.108065739E-2,1.437517524E0
3.234805801E0,-5.803215317E-3,3.252854943E-2,1.449734807E0
3.236933405E0,-9.162971983E-4,5.207622424E-2,1.464395642E0
3.239060957E0,3.054323897E-4,5.574141070E-2,1.476612926E0
3.241188509E0,-4.581485875E-3,3.863719851E-2,1.490051866E0
3.243316061E0,-9.162971983E-4,5.085449293E-2,1.501047492E0
3.245443666E0,-3.359756200E-3,5.085449293E-2,1.512042999E0
3.247571218E0,-4.581485875E-3,4.596757516E-2,1.518151641E0
3.249698770E0,-4.581485875E-3,4.841103405E-2,1.520595193E0
3.251826322E0,-2.138026757E-3,4.841103405E-2,1.520595193E0
3.253953926E0,-7.024944760E-3,4.963276163E-2,1.521816850E0
3.256081478E0,-9.162971983E-4,5.207622424E-2,1.526703835E0
3.258209030E0,-4.581485875E-3,5.451968312E-2,1.527925491E0
3.260336634E0,-3.359756200E-3,5.085449293E-2,1.530369043E0
3.262464186E0,-1.069013402E-2,3.985892609E-2,1.527925491E0
3.264591739E0,-9.162971983E-4,4.963276163E-2,1.527925491E0
3.266719291E0,2.748891478E-3,7.040216774E-2,1.526703835E0
3.268846895E0,-3.359756200E-3,5.329795182E-2,1.527925491E0
3.270974447E0,-1.069013402E-2,3.252854943E-2,1.532812476E0
3.273101999E0,-4.581485875E-3,4.963276163E-2,1.537699342E0
3.275229551E0,-4.581485875E-3,5.818486959E-2,1.543807983E0
3.277357155E0,-9.162971983E-4,5.207622424E-2,1.552360177E0
3.279484707E0,-3.359756200E-3,5.207622424E-2,1.559690475E0
3.281612259E0,-7.024944760E-3,4.718930274E-2,1.565799117E0
3.283739811E0,-9.162971983E-4,5.329795182E-2,1.571907759E0
3.285867416E0,-8.246674202E-3,5.085449293E-2,1.573129535E0
3.287994968E0,-3.359756200E-3,4.108065739E-2,1.575572968E0
3.290122520E0,-3.359756200E-3,5.818486959E-2,1.573129535E0
3.292250124E0,-9.162971983E-4,6.429351866E-2,1.571907759E0
3.294377676E0,-9.468403645E-3,4.108065739E-2,1.568242550E0
3.296505228E0,-2.138026757E-3,3.985892609E-2,1.570686102E0
3.298632780E0,-4.581485875E-3,5.451968312E-2,1.571907759E0
3.300760384E0,-2.138026757E-3,4.963276163E-2,1.573129535E0
3.302887936E0,-4.581485875E-3,5.451968312E-2,1.579238176E0
3.305015489E0,-3.359756200E-3,5.696314201E-2,1.585346818E0
3.307143041E0,-4.581485875E-3,4.841103405E-2,1.591455460E0
3.309270645E0,-9.162971983E-4,5.329795182E-2,1.600007534E0
3.311398197E0,-4.581485875E-3,5.818486959E-2,1.607337952E0
3.313525749E0,-4.581485875E-3,3.741546720E-2,1.615890026E0
3.315653301E0,-3.359756200E-3,4.963276163E-2,1.629329085E0
3.317780905E0,-3.359756200E-3,6.551524997E-2,1.640324593E0
3.319908457E0,-4.581485875E-3,5.574141070E-2,1.653763652E0
3.322036009E0,-4.581485875E-3,5.329795182E-2,1.665980935E0
3.324163614E0,-4.581485875E-3,5.818486959E-2,1.678198218E0
3.326291166E0,-2.138026757E-3,5.818486959E-2,1.691637278E0
3.328418718E0,-3.359756200E-3,5.696314201E-2,1.702632904E0
3.330546270E0,-5.803215317E-3,5.329795182E-2,1.714850187E0
3.332673874E0,-3.359756200E-3,5.451968312E-2,1.724624038E0
3.334801426E0,-9.162971983E-4,6.185005978E-2,1.736841321E0
3.336928978E0,-4.581485875E-3,6.185005978E-2,1.749058604E0
3.339056582E0,-2.138026757E-3,5.818486959E-2,1.760054111E0
3.341184134E0,-5.803215317E-3,5.696314201E-2,1.766162753E0
3.343311686E0,-3.359756200E-3,5.818486959E-2,1.768606305E0
3.345439239E0,-9.162971983E-4,6.795870513E-2,1.771049738E0
3.347566843E0,-2.138026757E-3,6.551524997E-2,1.771049738E0
3.349694395E0,-3.359756200E-3,5.329795182E-2,1.773493171E0
3.351821947E0,-4.581485875E-3,5.818486959E-2,1.778380036E0
3.353949499E0,-2.138026757E-3,5.329795182E-2,1.783267021E0
3.356077103E0,-4.581485875E-3,5.207622424E-2,1.791819096E0
3.358204655E0,-3.359756200E-3,6.307178736E-2,1.804036379E0
3.360332207E0,-4.581485875E-3,5.818486959E-2,1.811366796E0
3.362459759E0,-3.359756200E-3,5.085449293E-2,1.822362304E0
3.364587364E0,-9.162971983E-4,5.940660089E-2,1.828470945E0
3.366714916E0,-3.359756200E-3,4.718930274E-2,1.834579706E0
3.368842468E0,-3.359756200E-3,5.451968312E-2,1.840688348E0
3.370970072E0,-3.359756200E-3,5.451968312E-2,1.846796989E0
3.373097624E0,-3.359756200E-3,5.329795182E-2,1.854127288E0
3.375225176E0,-4.581485875E-3,5.451968312E-2,1.861457705E0
3.377352728E0,-9.162971983E-4,5.451968312E-2,1.867566347E0
3.379480280E0,-4.581485875E-3,5.940660089E-2,1.871231556E0
3.381607884E0,-3.359756200E-3,5.940660089E-2,1.873674989E0
3.383735436E0,-3.359756200E-3,6.307178736E-2,1.877340198E0
3.385863041E0,-3.359756200E-3,6.551524997E-2,1.878561854E0
3.387990593E0,-5.803215317E-3,6.673697382E-2,1.878561854E0
3.390118145E0,-7.024944760E-3,6.429351866E-2,1.879783630E0
3.392245697E0,-9.162971983E-4,6.551524997E-2,1.883448839E0
3.394373301E0,-8.246674202E-3,6.673697382E-2,1.883448839E0
3.396500853E0,-2.138026757E-3,7.040216774E-2,1.888335705E0
3.398628405E0,-8.246674202E-3,6.429351866E-2,1.888335705E0
3.400755957E0,-9.162971983E-4,6.185005978E-2,1.894444346E0
3.402883561E0,-4.581485875E-3,6.918043643E-2,1.894444346E0
3.405011114E0,-9.162971983E-4,6.185005978E-2,1.899331331E0
3.407138666E0,-8.246674202E-3,6.062832847E-2,1.905439973E0
3.409266218E0,-9.162971983E-4,6.429351866E-2,1.905439973E0
3.411393822E0,-5.803215317E-3,5.940660089E-2,1.909105182E0
3.413521374E0,-9.162971983E-4,5.818486959E-2,1.912770391E0
3.415648926E0,-3.359756200E-3,6.307178736E-2,1.917657256E0
3.417776530E0,-7.024944760E-3,5.574141070E-2,1.922544122E0
3.419904082E0,3.054323897E-4,4.841103405E-2,1.926209331E0
3.422031634E0,-9.162971983E-4,5.696314201E-2,1.928652883E0
3.424159186E0,-9.162971983E-4,4.474584386E-2,1.934761524E0
3.426286791E0,2.748891478E-3,4.718930274E-2,1.938426614E0
3.428414343E0,-9.162971983E-4,5.451968312E-2,1.939648390E0
3.430541895E0,-3.359756200E-3,4.718930274E-2,1.943313599E0
3.432669447E0,-4.581485875E-3,6.062832847E-2,1.940870166E0
3.434797051E0,-4.581485875E-3,6.673697382E-2,1.940870166E0
3.436924603E0,-5.803215317E-3,6.429351866E-2,1.938426614E0
3.439052155E0,-4.581485875E-3,6.307178736E-2,1.937204957E0
3.441179707E0,-4.581485875E-3,6.185005978E-2,1.935983181E0
3.443307311E0,-2.138026757E-3,6.673697382E-2,1.933539748E0
3.445434864E0,-7.024944760E-3,6.307178736E-2,1.932317972E0
3.447562416E0,-2.138026757E-3,5.451968312E-2,1.935983181E0
3.449690020E0,-5.803215317E-3,5.329795182E-2,1.940870166E0
3.451817572E0,-9.162971983E-4,4.963276163E-2,1.950644016E0
3.453945124E0,-3.359756200E-3,5.940660089E-2,1.959196091E0
3.456072676E0,-4.581485875E-3,5.818486959E-2,1.968969941E0
3.458200280E0,-5.803215317E-3,5.940660089E-2,1.976300240E0
3.460327832E0,-2.138026757E-3,6.185005978E-2,1.981187224E0
3.462455384E0,-5.803215317E-3,7.040216774E-2,1.988517523E0
3.464582936E0,-8.246674202E-3,7.528908551E-2,1.997069716E0
3.466710541E0,-4.581485875E-3,7.406735420E-2,2.006843567E0
3.468838093E0,-3.359756200E-3,7.528908551E-2,2.016617298E0
3.470965645E0,-4.581485875E-3,7.162389904E-2,2.025169373E0
3.473093197E0,-5.803215317E-3,7.162389904E-2,2.032499790E0
3.475220801E0,-4.581485875E-3,7.406735420E-2,2.043495417E0
3.477348353E0,-8.246674202E-3,7.162389904E-2,2.058156252E0
3.479475905E0,-4.581485875E-3,7.284562290E-2,2.072816849E0
3.481603509E0,-3.359756200E-3,7.040216774E-2,2.087477684E0
3.483731061E0,-4.581485875E-3,7.406735420E-2,2.102138519E0
3.485858614E0,-7.024944760E-3,6.795870513E-2,2.119242668E0
3.487986166E0,-2.138026757E-3,7.162389904E-2,2.135125160E0
3.490113770E0,-8.246674202E-3,7.040216774E-2,2.146120787E0
3.492241322E0,-5.803215317E-3,7.773254067E-2,2.163224936E0
3.494368874E0,-9.468403645E-3,6.673697382E-2,2.177885771E0
3.496496478E0,-5.803215317E-3,6.795870513E-2,2.193768024E0
3.498624030E0,-7.024944760E-3,7.406735420E-2,2.208428860E0
3.500751582E0,-5.803215317E-3,7.406735420E-2,2.220646143E0
3.502879186E0,-5.803215317E-3,7.773254067E-2,2.229198217E0
3.505006739E0,-7.024944760E-3,7.406735420E-2,2.241415501E0
3.507134291E0,-7.024944760E-3,7.406735420E-2,2.253632784E0
3.509261843E0,-8.246674202E-3,7.528908551E-2,2.263406754E0
3.511389447E0,-8.246674202E-3,7.651081681E-2,2.275624037E0
3.513516999E0,-4.581485875E-3,7.406735420E-2,2.282954454E0
3.515644551E0,-7.024944760E-3,7.528908551E-2,2.287841320E0
3.517772103E0,-5.803215317E-3,7.284562290E-2,2.295171738E0
3.519899655E0,-4.581485875E-3,7.284562290E-2,2.303723812E0
3.522027259E0,-3.359756200E-3,8.261945844E-2,2.309832335E0
3.524154811E0,-8.246674202E-3,7.895427197E-2,2.318384647E0
3.526282364E0,-5.803215317E-3,8.139773458E-2,2.328158379E0
3.528409968E0,-8.246674202E-3,8.628465235E-2,2.335488796E0
3.530537520E0,-5.803215317E-3,8.017600328E-2,2.346484423E0
3.532665072E0,-5.803215317E-3,8.384118974E-2,2.355036497E0
3.534792624E0,-9.468403645E-3,8.506292105E-2,2.362366915E0
3.536920228E0,-5.803215317E-3,8.017600328E-2,2.370918989E0
3.539047780E0,-7.024944760E-3,8.384118974E-2,2.377027512E0
3.541175384E0,-4.581485875E-3,8.506292105E-2,2.385579586E0
3.543302936E0,-5.803215317E-3,8.017600328E-2,2.391688347E0
3.545430489E0,-4.581485875E-3,8.261945844E-2,2.399018764E0
3.547558041E0,-5.803215317E-3,8.139773458E-2,2.403905630E0
3.549685593E0,-3.359756200E-3,8.017600328E-2,2.411236048E0
3.551813197E0,-5.803215317E-3,8.261945844E-2,2.411236048E0
3.553940749E0,-4.581485875E-3,7.406735420E-2,2.413679361E0
3.556068301E0,-2.138026757E-3,8.261945844E-2,2.413679361E0
3.558195905E0,-4.581485875E-3,7.528908551E-2,2.413679361E0
3.560323457E0,-3.359756200E-3,7.773254067E-2,2.416122913E0
3.562451009E0,-7.024944760E-3,7.651081681E-2,2.412457705E0
3.564578614E0,-5.803215317E-3,7.895427197E-2,2.411236048E0
3.566706166E0,-8.246674202E-3,8.139773458E-2,2.408792496E0
3.568833718E0,-8.246674202E-3,8.017600328E-2,2.410014153E0
3.570961270E0,-9.468403645E-3,8.872810751E-2,2.406349182E0
3.573088822E0,-7.024944760E-3,7.406735420E-2,2.403905630E0
3.575216426E0,-2.138026757E-3,8.628465235E-2,2.402683973E0
3.577343978E0,-7.024944760E-3,9.117157012E-2,2.402683973E0
3.579471530E0,-8.246674202E-3,8.017600328E-2,2.405127287E0
3.581599134E0,-5.803215317E-3,7.895427197E-2,2.402683973E0
3.583726686E0,-4.581485875E-3,8.261945844E-2,2.405127287E0
3.585854239E0,-4.581485875E-3,7.773254067E-2,2.406349182E0
3.587981791E0,-4.581485875E-3,7.406735420E-2,2.411236048E0
3.590109395E0,-4.581485875E-3,7.162389904E-2,2.417344570E0
3.592236947E0,-3.359756200E-3,6.551524997E-2,2.424674988E0
3.594364499E0,-3.359756200E-3,7.162389904E-2,2.430783749E0
3.596492103E0,-7.024944760E-3,8.628465235E-2,2.436892271E0
3.598619655E0,-1.069013402E-2,8.872810751E-2,2.445444345E0
3.600747207E0,-4.581485875E-3,8.506292105E-2,2.453996420E0
3.602874759E0,-8.246674202E-3,9.117157012E-2,2.462548733E0
3.605002364E0,-7.024944760E-3,8.384118974E-2,2.472322464E0
3.607129916E0,-5.803215317E-3,8.017600328E-2,2.485761404E0
3.609257468E0,-5.803215317E-3,8.628465235E-2,2.500422239E0
3.611385020E0,-5.803215317E-3,8.506292105E-2,2.518748283E0
3.613512624E0,-7.024944760E-3,8.384118974E-2,2.539517641E0
3.615640176E0,-8.246674202E-3,8.750637621E-2,2.560286999E0
3.617767728E0,-7.024944760E-3,8.872810751E-2,2.581056356E0
3.619895332E0,-7.024944760E-3,8.506292105E-2,2.603047609E0
3.622022884E0,-8.246674202E-3,8.506292105E-2,2.627482176E0
3.624150436E0,-5.803215317E-3,8.872810751E-2,2.649473190E0
3.626277989E0,-8.246674202E-3,8.506292105E-2,2.671464443E0
3.628405593E0,-8.246674202E-3,8.872810751E-2,2.695899010E0
3.630533145E0,-8.246674202E-3,8.628465235E-2,2.716668367E0
3.632660697E0,-5.803215317E-3,9.239330143E-2,2.739881277E0
3.634788301E0,-8.246674202E-3,8.750637621E-2,2.761872292E0
3.636915853E0,-3.359756200E-3,8.506292105E-2,2.781419992E0
3.639043405E0,-5.803215317E-3,9.117157012E-2,2.799746037E0
3.641171009E0,-5.803215317E-3,8.994983882E-2,2.815628529E0
3.643298561E0,-4.581485875E-3,9.239330143E-2,2.827845812E0
3.645426114E0,-4.581485875E-3,8.994983882E-2,2.840063095E0
3.647553666E0,-4.581485875E-3,8.261945844E-2,2.848615170E0
3.649681270E0,-4.581485875E-3,8.628465235E-2,2.852280378E0
3.651808822E0,-3.359756200E-3,9.117157012E-2,2.854723930E0
3.653936374E0,-4.581485875E-3,8.017600328E-2,2.855945587E0
3.656063926E0,-3.359756200E-3,7.651081681E-2,2.855945587E0
3.658191530E0,-5.803215317E-3,8.139773458E-2,2.851058722E0
3.660319082E0,-2.138026757E-3,8.628465235E-2,2.846171618E0
3.662446634E0,-4.581485875E-3,8.750637621E-2,2.837619543E0
3.664574186E0,-4.581485875E-3,9.239330143E-2,2.824180603E0
3.666701791E0,-2.138026757E-3,8.994983882E-2,2.811963320E0
3.668829343E0,-5.803215317E-3,9.117157012E-2,2.793637276E0
3.670956947E0,-4.581485875E-3,8.872810751E-2,2.776533127E0
3.673084499E0,-4.581485875E-3,8.994983882E-2,2.756985426E0
3.675212051E0,-5.803215317E-3,9.239330143E-2,2.734994411E0
3.677339603E0,-2.138026757E-3,9.728021920E-2,2.711781502E0
3.679467207E0,-9.468403645E-3,1.021671370E-1,2.687346935E0
3.681594759E0,-9.468403645E-3,9.605848789E-2,2.667799234E0
3.683722311E0,-8.246674202E-3,9.728021920E-2,2.648251534E0
3.685849864E0,-7.024944760E-3,9.605848789E-2,2.632369041E0
3.687977468E0,-8.246674202E-3,9.850194305E-2,2.620151758E0
3.690105020E0,-5.803215317E-3,9.117157012E-2,2.605490923E0
3.692232572E0,-4.581485875E-3,8.261945844E-2,2.593273640E0
3.694360124E0,-4.581485875E-3,8.750637621E-2,2.583499908E0
3.696487728E0,-7.024944760E-3,8.384118974E-2,2.572504282E0
3.698615280E0,-3.359756200E-3,8.506292105E-2,2.566395760E0
3.700742832E0,-7.024944760E-3,8.628465235E-2,2.562730551E0
3.702870436E0,-5.803215317E-3,8.872810751E-2,2.562730551E0
3.704997989E0,-3.359756200E-3,8.750637621E-2,2.562730551E0
3.707125541E0,-3.359756200E-3,8.506292105E-2,2.566395760E0
3.709253093E0,-4.581485875E-3,8.506292105E-2,2.567617416E0
3.711380697E0,-7.024944760E-3,8.384118974E-2,2.570060730E0
3.713508249E0,-5.803215317E-3,8.139773458E-2,2.573725939E0
3.715635801E0,-4.581485875E-3,8.872810751E-2,2.577391148E0
3.717763353E0,-7.024944760E-3,8.506292105E-2,2.583499908E0
3.719890957E0,-7.024944760E-3,7.895427197E-2,2.589608431E0
3.722018509E0,-4.581485875E-3,8.628465235E-2,2.594495535E0
3.724146061E0,-8.246674202E-3,8.017600328E-2,2.600604057E0
3.726273666E0,-4.581485875E-3,8.139773458E-2,2.607934475E0
3.728401218E0,-4.581485875E-3,8.994983882E-2,2.612821341E0
3.730528770E0,-8.246674202E-3,8.872810751E-2,2.620151758E0
3.732656374E0,-9.468403645E-3,9.605848789E-2,2.627482176E0
3.734783926E0,-7.024944760E-3,9.605848789E-2,2.636034250E0
3.736911478E0,-7.024944760E-3,9.239330143E-2,2.647029877E0
3.739039082E0,-1.191186346E-2,9.483675659E-2,2.660468817E0
3.741166634E0,-7.024944760E-3,9.850194305E-2,2.673907757E0
3.743294186E0,-7.024944760E-3,9.605848789E-2,2.689790249E0
3.745421739E0,-7.024944760E-3,9.361502528E-2,2.708116293E0
3.747549343E0,-5.803215317E-3,9.483675659E-2,2.725220442E0
3.749676895E0,-5.803215317E-3,1.009454057E-1,2.743546486E0
3.751804447E0,-8.246674202E-3,9.850194305E-2,2.761872292E0
3.753931999E0,-4.581485875E-3,9.605848789E-2,2.781419992E0
3.756059603E0,-7.024944760E-3,1.009454057E-1,2.798524380E0
3.758187155E0,-8.246674202E-3,1.021671370E-1,2.818071842E0
3.760314707E0,-7.024944760E-3,9.850194305E-2,2.833954334E0
3.762442311E0,-9.468403645E-3,1.021671370E-1,2.854723930E0
3.764569864E0,-8.246674202E-3,9.850194305E-2,2.873049736E0
3.766697416E0,-7.024944760E-3,9.972367436E-2,2.890153885E0
3.768824968E0,-8.246674202E-3,1.009454057E-1,2.906036377E0
3.770952572E0,-8.246674202E-3,9.483675659E-2,2.923140764E0
3.773080124E0,-8.246674202E-3,1.009454057E-1,2.939023256E0
3.775207676E0,-7.024944760E-3,1.021671370E-1,2.953683853E0
3.777335280E0,-5.803215317E-3,9.972367436E-2,2.965901136E0
3.779462832E0,-5.803215317E-3,9.728021920E-2,2.980561972E0
3.781590384E0,-8.246674202E-3,9.850194305E-2,2.990335703E0
3.783717989E0,-2.138026757E-3,1.009454057E-1,3.000109673E0
3.785845541E0,-5.803215317E-3,1.021671370E-1,3.009883404E0
3.787973093E0,-4.581485875E-3,1.046105921E-1,3.017213821E0
3.790100645E0,-3.359756200E-3,1.033888608E-1,3.023322582E0
3.792228197E0,-3.359756200E-3,1.021671370E-1,3.026987791E0
3.794355801E0,-4.581485875E-3,1.094975099E-1,3.030653000E0
3.796483353E0,-4.581485875E-3,1.070540547E-1,3.031874657E0
3.798610905E0,-4.581485875E-3,1.033888608E-1,3.030653000E0
3.800738509E0,-8.246674202E-3,1.046105921E-1,3.029431105E0
3.802866061E0,-9.468403645E-3,9.850194305E-2,3.024544239E0
3.804993614E0,-8.246674202E-3,9.239330143E-2,3.018435478E0
3.807121218E0,-4.581485875E-3,9.972367436E-2,3.011105299E0
3.809248770E0,-7.024944760E-3,9.361502528E-2,3.002553225E0
3.811376322E0,-1.069013402E-2,7.528908551E-2,2.992779255E0
3.813503874E0,3.054323897E-4,1.021671370E-1,2.981783628E0
3.815631478E0,-3.359756200E-3,1.156061590E-1,2.967123032E0
3.817759030E0,-3.359756200E-3,1.009454057E-1,2.952462196E0
3.819886582E0,-4.581485875E-3,8.384118974E-2,2.937801361E0
3.822014186E0,-3.359756200E-3,1.070540547E-1,2.926805973E0
3.824141739E0,-8.246674202E-3,1.143844277E-1,2.908479929E0
3.826269291E0,-4.581485875E-3,9.972367436E-2,2.895040989E0
3.828396895E0,-5.803215317E-3,9.850194305E-2,2.881601810E0
3.830524447E0,-7.024944760E-3,9.605848789E-2,2.868162870E0
3.832651999E0,-5.803215317E-3,9.239330143E-2,2.854723930E0
3.834779551E0,-8.246674202E-3,9.117157012E-2,2.841284752E0
3.836907155E0,-3.359756200E-3,8.872810751E-2,2.829067469E0
3.839034707E0,-2.138026757E-3,9.239330143E-2,2.821737051E0
3.841162259E0,-5.803215317E-3,9.239330143E-2,2.813184977E0
3.843289811E0,-4.581485875E-3,9.483675659E-2,2.807076454E0
3.845417416E0,-5.803215317E-3,9.361502528E-2,2.798524380E0
3.847544968E0,-4.581485875E-3,9.483675659E-2,2.793637276E0
3.849672520E0,-9.468403645E-3,9.361502528E-2,2.787528753E0
3.851800124E0,-4.581485875E-3,9.728021920E-2,2.781419992E0
3.853927676E0,-5.803215317E-3,1.021671370E-1,2.777754784E0
3.856055228E0,-8.246674202E-3,9.483675659E-2,2.770424604E0
3.858182780E0,-9.468403645E-3,9.239330143E-2,2.767981052E0
3.860310384E0,-4.581485875E-3,9.483675659E-2,2.764315844E0
3.862437936E0,-5.803215317E-3,9.972367436E-2,2.760650635E0
3.864565489E0,-4.581485875E-3,9.239330143E-2,2.760650635E0
3.866693093E0,-4.581485875E-3,9.972367436E-2,2.755763769E0
3.868820645E0,-5.803215317E-3,9.117157012E-2,2.755763769E0
3.870948197E0,-2.138026757E-3,9.605848789E-2,2.755763769E0
3.873075749E0,-5.803215317E-3,9.728021920E-2,2.753320217E0
3.875203353E0,-4.581485875E-3,9.117157012E-2,2.753320217E0
3.877330905E0,-5.803215317E-3,8.628465235E-2,2.750876904E0
3.879458457E0,-5.803215317E-3,9.117157012E-2,2.752098560E0
3.881586061E0,-2.138026757E-3,9.850194305E-2,2.752098560E0
3.883713614E0,-7.024944760E-3,9.483675659E-2,2.752098560E0
3.885841166E0,-4.581485875E-3,8.750637621E-2,2.750876904E0
3.887968718E0,-4.581485875E-3,9.972367436E-2,2.750876904E0
3.890096322E0,-4.581485875E-3,9.972367436E-2,2.750876904E0
3.892223874E0,-7.024944760E-3,9.117157012E-2,2.750876904E0
3.894351426E0,-4.581485875E-3,9.728021920E-2,2.752098560E0
3.896479030E0,-1.069013402E-2,9.483675659E-2,2.750876904E0
3.898606582E0,-4.581485875E-3,9.361502528E-2,2.749655008E0
3.900734134E0,-5.803215317E-3,1.021671370E-1,2.745989799E0
3.902861739E0,-9.468403645E-3,8.872810751E-2,2.744768143E0
3.904989291E0,-5.803215317E-3,9.361502528E-2,2.743546486E0
3.907116843E0,-4.581485875E-3,1.094975099E-1,2.739881277E0
3.909244395E0,-7.024944760E-3,9.728021920E-2,2.736216068E0
3.911371999E0,-5.803215317E-3,8.384118974E-2,2.734994411E0
3.913499551E0,-7.024944760E-3,9.605848789E-2,2.732550859E0
3.915627103E0,-4.581485875E-3,9.605848789E-2,2.731329203E0
3.917754655E0,-5.803215317E-3,9.117157012E-2,2.726442337E0
3.919882259E0,-5.803215317E-3,9.483675659E-2,2.722777128E0
3.922009811E0,-4.581485875E-3,1.033888608E-1,2.716668367E0
3.924137364E0,-4.581485875E-3,9.483675659E-2,2.710559845E0
3.926264968E0,-5.803215317E-3,9.483675659E-2,2.705672741E0
3.928392520E0,-4.581485875E-3,9.850194305E-2,2.698342562E0
3.930520072E0,-7.024944760E-3,9.361502528E-2,2.687346935E0
3.932647676E0,-3.359756200E-3,8.994983882E-2,2.677572966E0
3.934775228E0,-7.024944760E-3,9.361502528E-2,2.670242548E0
3.936902780E0,3.054323897E-4,1.033888608E-1,2.664134026E0
3.939030332E0,-5.803215317E-3,1.021671370E-1,2.655581951E0
3.941157936E0,-9.468403645E-3,8.139773458E-2,2.647029877E0
3.943285489E0,-5.803215317E-3,8.628465235E-2,2.639699459E0
3.945413041E0,-2.138026757E-3,1.009454057E-1,2.629925489E0
3.947540645E0,-2.138026757E-3,9.972367436E-2,2.616486549E0
3.949668197E0,-7.024944760E-3,8.506292105E-2,2.604269266E0
3.951795749E0,-8.246674202E-3,8.017600328E-2,2.593273640E0
3.953923353E0,-5.803215317E-3,8.628465235E-2,2.582278252E0
3.956050905E0,-4.581485875E-3,9.117157012E-2,2.570060730E0
3.958178457E0,-7.024944760E-3,8.139773458E-2,2.556621790E0
3.960306009E0,-9.468403645E-3,7.773254067E-2,2.544404507E0
3.962433614E0,-8.246674202E-3,8.017600328E-2,2.533408880E0
3.964561166E0,-7.024944760E-3,8.384118974E-2,2.526078463E0
3.966688718E0,-7.024944760E-3,8.994983882E-2,2.515083075E0
3.968816270E0,-5.803215317E-3,8.994983882E-2,2.507752657E0
3.970943874E0,-5.803215317E-3,8.872810751E-2,2.499200583E0
3.973071426E0,-1.191186346E-2,8.139773458E-2,2.493091822E0
3.975198978E0,-8.246674202E-3,8.017600328E-2,2.488204956E0
3.977326582E0,-7.024944760E-3,8.750637621E-2,2.480874538E0
3.979454134E0,-7.024944760E-3,8.384118974E-2,2.477209330E0
3.981581686E0,-9.468403645E-3,8.139773458E-2,2.473544121E0
3.983709239E0,-9.468403645E-3,7.651081681E-2,2.471100807E0
3.985836843E0,-7.024944760E-3,8.506292105E-2,2.468657255E0
3.987964395E0,-8.246674202E-3,8.017600328E-2,2.462548733E0
3.990091947E0,-5.803215317E-3,7.651081681E-2,2.458883524E0
3.992219551E0,-7.024944760E-3,7.773254067E-2,2.453996420E0
3.994347103E0,-5.803215317E-3,8.628465235E-2,2.451553106E0
3.996474655E0,-7.024944760E-3,8.139773458E-2,2.445444345E0
3.998602259E0,-8.246674202E-3,6.673697382E-2,2.441779137E0
4.000729811E0,-5.803215317E-3,8.017600328E-2,2.438114166E0
4.002857364E0,-5.803215317E-3,8.384118974E-2,2.432005405E0
4.004984916E0,-8.246674202E-3,8.017600328E-2,2.430783749E0
4.007112520E0,-5.803215317E-3,8.139773458E-2,2.428340197E0
4.009240072E0,-9.162971983E-4,8.261945844E-2,2.430783749E0
4.011367624E0,-7.024944760E-3,7.895427197E-2,2.430783749E0
4.013495228E0,-5.803215317E-3,7.651081681E-2,2.430783749E0
4.015622780E0,-7.024944760E-3,7.895427197E-2,2.428340197E0
4.017750332E0,-5.803215317E-3,7.651081681E-2,2.427118540E0
4.019877936E0,-7.024944760E-3,8.261945844E-2,2.427118540E0
4.022005489E0,-7.024944760E-3,8.261945844E-2,2.424674988E0
4.024133041E0,-7.024944760E-3,7.895427197E-2,2.422231674E0
4.026260593E0,-8.246674202E-3,7.895427197E-2,2.416122913E0
4.028388197E0,-8.246674202E-3,8.017600328E-2,2.414901257E0
4.030515749E0,-3.359756200E-3,8.017600328E-2,2.408792496E0
4.032643301E0,-5.803215317E-3,8.139773458E-2,2.400240421E0
4.034770853E0,-7.024944760E-3,7.773254067E-2,2.390466690E0
4.036898457E0,-8.246674202E-3,7.773254067E-2,2.383136272E0
4.039026009E0,-5.803215317E-3,7.651081681E-2,2.372140646E0
4.041153614E0,-5.803215317E-3,7.773254067E-2,2.359923363E0
4.043281166E0,-4.581485875E-3,7.773254067E-2,2.348927736E0
4.045408718E0,-2.138026757E-3,8.139773458E-2,2.336710453E0
4.047536270E0,-9.162971983E-4,8.017600328E-2,2.328158379E0
4.049663874E0,-3.359756200E-3,8.017600328E-2,2.322049856E0
4.051791426E0,-3.359756200E-3,7.773254067E-2,2.315941095E0
4.053918978E0,-7.024944760E-3,7.284562290E-2,2.308610678E0
4.056046582E0,-5.803215317E-3,7.162389904E-2,2.300058603E0
4.058174134E0,-5.803215317E-3,6.795870513E-2,2.296393394E0
4.060301686E0,-4.581485875E-3,7.406735420E-2,2.291506529E0
4.062429239E0,-3.359756200E-3,7.406735420E-2,2.282954454E0
4.064556843E0,-4.581485875E-3,7.162389904E-2,2.276845694E0
4.066684395E0,-7.024944760E-3,7.284562290E-2,2.270737171E0
4.068811947E0,-7.024944760E-3,7.040216774E-2,2.265850067E0
4.070939551E0,-4.581485875E-3,7.284562290E-2,2.258519888E0
4.073067103E0,-4.581485875E-3,7.162389904E-2,2.248745918E0
4.075194655E0,-7.024944760E-3,6.918043643E-2,2.241415501E0
4.077322259E0,-5.803215317E-3,6.918043643E-2,2.235306978E0
4.079449811E0,-5.803215317E-3,7.040216774E-2,2.230420113E0
4.081577364E0,-5.803215317E-3,6.918043643E-2,2.225533009E0
4.083704916E0,-5.803215317E-3,7.162389904E-2,2.223089695E0
4.085832520E0,-3.359756200E-3,7.162389904E-2,2.219424486E0
4.087960072E0,-5.803215317E-3,7.162389904E-2,2.219424486E0
4.090087624E0,-3.359756200E-3,7.040216774E-2,2.218202829E0
4.092215228E0,-2.138026757E-3,7.528908551E-2,2.215759277E0
4.094342780E0,-3.359756200E-3,7.406735420E-2,2.214537621E0
4.096470332E0,-7.024944760E-3,7.162389904E-2,2.210872412E0
4.098597884E0,-5.803215317E-3,7.162389904E-2,2.205985546E0
4.100725489E0,-4.581485875E-3,6.673697382E-2,2.203541994E0
4.102853041E0,-7.024944760E-3,6.673697382E-2,2.199876785E0
4.104980593E0,-7.024944760E-3,6.918043643E-2,2.198655128E0
4.107108197E0,-4.581485875E-3,7.040216774E-2,2.196211576E0
4.109235749E0,-4.581485875E-3,7.040216774E-2,2.192546368E0
4.111363301E0,-5.803215317E-3,7.162389904E-2,2.191324711E0
4.113490853E0,-5.803215317E-3,6.918043643E-2,2.186437845E0
4.115618457E0,-5.803215317E-3,6.673697382E-2,2.182772636E0
4.117746009E0,-5.803215317E-3,6.795870513E-2,2.180329084E0
4.119873561E0,-3.359756200E-3,7.040216774E-2,2.180329084E0
4.122001166E0,-2.138026757E-3,6.918043643E-2,2.177885771E0
4.124128718E0,-3.359756200E-3,7.040216774E-2,2.174220562E0
4.126256270E0,-5.803215317E-3,6.918043643E-2,2.175442219E0
4.128383874E0,-7.024944760E-3,6.429351866E-2,2.172998667E0
4.130511426E0,-5.803215317E-3,6.795870513E-2,2.174220562E0
4.132638978E0,-3.359756200E-3,6.673697382E-2,2.170555353E0
4.134766530E0,-3.359756200E-3,6.795870513E-2,2.169333458E0
4.136894134E0,-5.803215317E-3,6.795870513E-2,2.169333458E0
4.139021686E0,-4.581485875E-3,6.918043643E-2,2.169333458E0
4.141149239E0,-4.581485875E-3,6.795870513E-2,2.169333458E0
4.143276843E0,-4.581485875E-3,7.040216774E-2,2.172998667E0
4.145404395E0,-5.803215317E-3,6.918043643E-2,2.177885771E0
4.147531947E0,-3.359756200E-3,6.918043643E-2,2.183994293E0
4.149659499E0,-5.803215317E-3,7.162389904E-2,2.192546368E0
4.151787103E0,-3.359756200E-3,7.162389904E-2,2.201098442E0
4.153914655E0,-4.581485875E-3,7.406735420E-2,2.208428860E0
4.156042207E0,-3.359756200E-3,7.528908551E-2,2.218202829E0
4.158169811E0,-4.581485875E-3,7.773254067E-2,2.229198217E0
4.160297364E0,-4.581485875E-3,7.773254067E-2,2.241415501E0
4.162424916E0,-9.162971983E-4,7.773254067E-2,2.252411127E0
4.164552520E0,-2.138026757E-3,7.406735420E-2,2.265850067E0
4.166680072E0,-4.581485875E-3,7.284562290E-2,2.279289246E0
4.168807624E0,-5.803215317E-3,7.651081681E-2,2.295171738E0
4.170935176E0,-4.581485875E-3,7.895427197E-2,2.311054230E0
4.173062780E0,-2.138026757E-3,7.895427197E-2,2.326936722E0
4.175190332E0,-2.138026757E-3,7.895427197E-2,2.341597319E0
4.177317884E0,-3.359756200E-3,7.651081681E-2,2.356258154E0
4.179445489E0,-5.803215317E-3,7.528908551E-2,2.368475437E0
4.181573041E0,-4.581485875E-3,7.528908551E-2,2.380692720E0
4.183700593E0,-5.803215317E-3,7.651081681E-2,2.395353556E0
4.185828197E0,-4.581485875E-3,7.528908551E-2,2.407570839E0
4.187955749E0,-4.581485875E-3,7.773254067E-2,2.419788122E0
4.190083301E0,-5.803215317E-3,7.528908551E-2,2.428340197E0
4.192210905E0,-4.581485875E-3,7.651081681E-2,2.436892271E0
4.194338457E0,-5.803215317E-3,7.651081681E-2,2.444222689E0
4.196466009E0,-4.581485875E-3,8.139773458E-2,2.451553106E0
4.198593561E0,-2.138026757E-3,8.384118974E-2,2.461326838E0
4.200721166E0,-9.162971983E-4,8.628465235E-2,2.464992046E0
4.202848718E0,3.054323897E-4,8.506292105E-2,2.469878912E0
4.204976270E0,-9.162971983E-4,8.384118974E-2,2.478431225E0
4.207103874E0,-2.138026757E-3,8.139773458E-2,2.482096434E0
4.209231426E0,3.054323897E-4,8.384118974E-2,2.488204956E0
4.211358978E0,-9.162971983E-4,8.261945844E-2,2.495535374E0
4.213486530E0,-3.359756200E-3,8.017600328E-2,2.493091822E0
4.215614134E0,-8.246674202E-3,7.528908551E-2,2.486983299E0
4.217741686E0,-5.803215317E-3,7.406735420E-2,2.477209330E0
4.219869239E0,-8.246674202E-3,7.773254067E-2,2.471100807E0
4.221996843E0,-5.803215317E-3,8.017600328E-2,2.463770390E0
4.224124395E0,-5.803215317E-3,8.261945844E-2,2.457661629E0
4.226251947E0,-7.024944760E-3,7.895427197E-2,2.449109554E0
4.228379551E0,-8.246674202E-3,7.284562290E-2,2.444222689E0
4.230507103E0,-9.468403645E-3,6.918043643E-2,2.438114166E0
4.232634655E0,-9.468403645E-3,7.162389904E-2,2.430783749E0
4.234762259E0,-8.246674202E-3,7.651081681E-2,2.422231674E0
4.236889811E0,-5.803215317E-3,8.384118974E-2,2.412457705E0
4.239017364E0,-3.359756200E-3,8.750637621E-2,2.402683973E0
