"Time (s)","Gyroscope x (rad/s)","Gyroscope y (rad/s)","Gyroscope z (rad/s)"
1.881980000E-2,1.527161949E-4,2.290742937E-3,1.069013379E-3
2.094740400E-2,-1.069013379E-3,1.069013379E-3,1.069013379E-3
2.307495600E-2,1.527161949E-4,1.069013379E-3,2.290742937E-3
2.520250800E-2,1.527161949E-4,1.069013379E-3,1.069013379E-3
2.733006000E-2,1.374445739E-3,-1.527161949E-4,1.069013379E-3
2.945761200E-2,2.596175298E-3,-1.527161949E-4,-1.527161949E-4
3.158521600E-2,1.527161949E-4,1.069013379E-3,1.069013379E-3
3.371276800E-2,1.527161949E-4,-1.527161949E-4,-1.527161949E-4
3.584032100E-2,1.527161949E-4,-1.527161949E-4,-1.527161949E-4
3.796787300E-2,-1.069013379E-3,-1.527161949E-4,1.069013379E-3
4.009542500E-2,-2.290742937E-3,1.069013379E-3,1.069013379E-3
4.222302900E-2,-3.512472380E-3,1.069013379E-3,1.069013379E-3
4.435058100E-2,-3.512472380E-3,-2.596175298E-3,-1.527161949E-4
4.647813300E-2,1.527161949E-4,-1.374445739E-3,-1.527161949E-4
4.860568500E-2,1.374445739E-3,1.069013379E-3,-1.527161949E-4
5.073323700E-2,1.527161949E-4,-1.374445739E-3,-1.374445739E-3
5.286084100E-2,-1.069013379E-3,-1.527161949E-4,-1.527161949E-4
5.498839300E-2,1.374445739E-3,-1.527161949E-4,-1.527161949E-4
5.711594600E-2,1.527161949E-4,-1.527161949E-4,-1.527161949E-4
5.924349800E-2,1.527161949E-4,-1.374445739E-3,-1.374445739E-3
6.137110200E-2,1.527161949E-4,1.069013379E-3,-1.527161949E-4
6.349865400E-2,1.527161949E-4,1.069013379E-3,1.069013379E-3
6.562620600E-2,1.527161949E-4,-1.527161949E-4,-1.527161949E-4
6.775375800E-2,1.527161949E-4,-1.527161949E-4,-1.527161949E-4
6.988131000E-2,-2.290742937E-3,-1.527161949E-4,1.069013379E-3
7.200891400E-2,1.527161949E-4,-1.374445739E-3,-1.527161949E-4
7.413646600E-2,-1.069013379E-3,-1.527161949E-4,1.069013379E-3
7.626401800E-2,-1.069013379E-3,-1.527161949E-4,-1.527161949E-4
7.839157100E-2,-1.069013379E-3,-1.527161949E-4,-1.527161949E-4
8.051912300E-2,1.527161949E-4,-1.527161949E-4,-1.527161949E-4
8.264667500E-2,1.527161949E-4,1.069013379E-3,1.069013379E-3
8.477427900E-2,1.527161949E-4,1.069013379E-3,1.069013379E-3
8.690183100E-2,1.374445739E-3,1.069013379E-3,1.069013379E-3
8.902938300E-2,1.527161949E-4,-1.527161949E-4,1.069013379E-3
9.115693500E-2,1.527161949E-4,1.069013379E-3,-1.527161949E-4
9.328453900E-2,1.527161949E-4,-1.527161949E-4,-1.527161949E-4
9.541209100E-2,-1.069013379E-3,-1.527161949E-4,1.069013379E-3
9.753964300E-2,1.527161949E-4,-1.374445739E-3,-1.374445739E-3
9.966719600E-2,-1.069013379E-3,-1.527161949E-4,-1.527161949E-4
1.017947480E-1,-1.069013379E-3,1.069013379E-3,1.069013379E-3
1.039223520E-1,-1.069013379E-3,1.069013379E-3,1.069013379E-3
1.060499040E-1,1.527161949E-4,2.290742937E-3,-1.374445739E-3
1.081774560E-1,1.527161949E-4,-1.527161949E-4,1.069013379E-3
1.103050080E-1,1.527161949E-4,1.069013379E-3,-1.527161949E-4
1.124325600E-1,1.527161949E-4,-1.527161949E-4,1.069013379E-3
1.145601640E-1,-1.069013379E-3,-1.374445739E-3,1.069013379E-3
1.166877160E-1,1.527161949E-4,1.069013379E-3,-1.527161949E-4
1.188152680E-1,1.527161949E-4,-1.527161949E-4,1.069013379E-3
1.209428210E-1,-1.069013379E-3,-1.527161949E-4,-1.527161949E-4
1.230703730E-1,-2.290742937E-3,-1.527161949E-4,-1.527161949E-4
1.251979770E-1,1.527161949E-4,1.069013379E-3,-1.527161949E-4
1.273255290E-1,1.374445739E-3,1.069013379E-3,1.069013379E-3
1.294530810E-1,-1.069013379E-3,-1.527161949E-4,-1.527161949E-4
1.315806330E-1,1.527161949E-4,-1.527161949E-4,1.069013379E-3
1.337081850E-1,1.374445739E-3,-1.527161949E-4,-1.527161949E-4
1.358357890E-1,1.527161949E-4,-1.527161949E-4,-1.527161949E-4
1.379633410E-1,1.527161949E-4,-1.527161949E-4,-1.527161949E-4
1.400908930E-1,1.527161949E-4,-1.374445739E-3,1.069013379E-3
1.422184460E-1,1.374445739E-3,-1.374445739E-3,-1.527161949E-4
1.443459980E-1,1.374445739E-3,1.069013379E-3,-1.527161949E-4
1.464736020E-1,1.527161949E-4,1.069013379E-3,-1.527161949E-4
1.486011540E-1,1.527161949E-4,-1.527161949E-4,-1.527161949E-4
1.507287060E-1,1.374445739E-3,1.069013379E-3,1.069013379E-3
1.528562580E-1,-1.069013379E-3,2.290742937E-3,-1.527161949E-4
1.549838620E-1,1.527161949E-4,-1.527161949E-4,-1.527161949E-4
1.571114140E-1,-1.069013379E-3,1.069013379E-3,2.290742937E-3
1.592389660E-1,-1.069013379E-3,-1.527161949E-4,-1.527161949E-4
1.613665180E-1,-1.069013379E-3,-1.527161949E-4,-1.527161949E-4
1.634940710E-1,-1.069013379E-3,-1.527161949E-4,1.069013379E-3
1.656216230E-1,-1.069013379E-3,-1.527161949E-4,1.069013379E-3
1.677492270E-1,1.527161949E-4,1.069013379E-3,-1.527161949E-4
1.698767790E-1,-1.069013379E-3,1.069013379E-3,-1.374445739E-3
1.720043310E-1,1.527161949E-4,-1.527161949E-4,1.069013379E-3
1.741318830E-1,-1.069013379E-3,1.069013379E-3,1.069013379E-3
1.762594350E-1,1.527161949E-4,-1.527161949E-4,-1.527161949E-4
1.783870390E-1,-1.069013379E-3,1.069013379E-3,1.069013379E-3
1.805145910E-1,1.527161949E-4,-1.374445739E-3,-1.527161949E-4
1.826421430E-1,1.527161949E-4,-1.527161949E-4,-1.527161949E-4
1.847696960E-1,1.374445739E-3,-1.527161949E-4,1.069013379E-3
1.868972480E-1,1.374445739E-3,-1.374445739E-3,-1.527161949E-4
1.890248520E-1,1.527161949E-4,-1.527161949E-4,-1.527161949E-4
1.911524040E-1,1.527161949E-4,-1.527161949E-4,1.069013379E-3
1.932799560E-1,-1.069013379E-3,1.069013379E-3,-1.527161949E-4
1.954075080E-1,1.527161949E-4,1.069013379E-3,-1.527161949E-4
1.975350600E-1,1.374445739E-3,-1.527161949E-4,2.290742937E-3
1.996626640E-1,-1.069013379E-3,1.069013379E-3,-1.527161949E-4
2.017902160E-1,1.527161949E-4,1.069013379E-3,-1.527161949E-4
2.039177680E-1,-1.069013379E-3,1.069013379E-3,-1.527161949E-4
2.060453210E-1,1.527161949E-4,1.069013379E-3,1.069013379E-3
2.081729250E-1,1.527161949E-4,-1.374445739E-3,-1.527161949E-4
2.103004770E-1,1.527161949E-4,1.069013379E-3,-1.527161949E-4
2.124280290E-1,1.527161949E-4,-1.374445739E-3,-1.374445739E-3
2.145555810E-1,1.527161949E-4,-1.374445739E-3,1.069013379E-3
2.166831330E-1,-1.069013379E-3,-1.527161949E-4,-1.527161949E-4
2.188106850E-1,1.527161949E-4,-1.527161949E-4,1.069013379E-3
2.209382890E-1,1.527161949E-4,-1.527161949E-4,-1.527161949E-4
2.230658410E-1,1.527161949E-4,-1.527161949E-4,-1.527161949E-4
2.251933930E-1,1.527161949E-4,-1.527161949E-4,-1.527161949E-4
2.273209460E-1,1.374445739E-3,-1.527161949E-4,-1.527161949E-4
2.294485500E-1,-1.069013379E-3,-1.374445739E-3,1.069013379E-3
2.315761020E-1,-1.069013379E-3,-1.527161949E-4,-1.527161949E-4
2.337036540E-1,-1.069013379E-3,1.069013379E-3,-1.527161949E-4
2.358312060E-1,-1.069013379E-3,2.290742937E-3,-1.527161949E-4
2.379587580E-1,-1.069013379E-3,-1.374445739E-3,-1.527161949E-4
2.400863620E-1,1.527161949E-4,-1.527161949E-4,1.069013379E-3
2.422139140E-1,1.527161949E-4,-1.527161949E-4,-1.527161949E-4
2.443414660E-1,1.527161949E-4,-1.527161949E-4,-1.527161949E-4
2.464690180E-1,1.527161949E-4,-1.527161949E-4,-1.527161949E-4
2.485965710E-1,1.527161949E-4,1.069013379E-3,1.069013379E-3
2.507241750E-1,-1.069013379E-3,1.069013379E-3,1.069013379E-3
2.528517270E-1,-1.069013379E-3,1.069013379E-3,1.069013379E-3
2.549792790E-1,1.527161949E-4,-1.527161949E-4,1.069013379E-3
2.571068310E-1,-1.069013379E-3,-1.527161949E-4,1.069013379E-3
2.592343830E-1,1.527161949E-4,-1.527161949E-4,-1.527161949E-4
2.613619870E-1,1.527161949E-4,-1.374445739E-3,-1.527161949E-4
2.634895390E-1,1.527161949E-4,-1.527161949E-4,-1.527161949E-4
2.656170910E-1,-2.290742937E-3,-1.527161949E-4,-1.527161949E-4
2.677446430E-1,1.374445739E-3,-1.527161949E-4,1.069013379E-3
2.698721960E-1,1.527161949E-4,-1.374445739E-3,2.290742937E-3
2.719998000E-1,-1.069013379E-3,1.069013379E-3,1.069013379E-3
2.741273520E-1,1.527161949E-4,-1.527161949E-4,1.069013379E-3
2.762549040E-1,1.527161949E-4,-1.374445739E-3,1.069013379E-3
2.783824560E-1,-1.069013379E-3,1.069013379E-3,1.069013379E-3
2.805100080E-1,1.527161949E-4,1.069013379E-3,1.069013379E-3
2.826376120E-1,-1.069013379E-3,-1.527161949E-4,-1.374445739E-3
2.847651640E-1,1.374445739E-3,-1.527161949E-4,-1.527161949E-4
2.868927160E-1,1.527161949E-4,-1.527161949E-4,1.069013379E-3
2.890202680E-1,-1.069013379E-3,-1.527161949E-4,1.069013379E-3
2.911478730E-1,1.527161949E-4,-1.527161949E-4,1.069013379E-3
2.932754250E-1,-2.290742937E-3,1.069013379E-3,1.069013379E-3
2.954029770E-1,-1.069013379E-3,-1.527161949E-4,-1.527161949E-4
2.975305290E-1,1.527161949E-4,-1.527161949E-4,-1.374445739E-3
2.996580810E-1,-1.069013379E-3,-1.374445739E-3,-1.374445739E-3
3.017856850E-1,1.527161949E-4,1.069013379E-3,-2.596175298E-3
3.039132370E-1,1.374445739E-3,-1.527161949E-4,-1.527161949E-4
3.060407890E-1,1.374445739E-3,1.069013379E-3,-1.527161949E-4
3.081683410E-1,-1.069013379E-3,-1.527161949E-4,-1.527161949E-4
3.102959460E-1,1.527161949E-4,-1.527161949E-4,1.069013379E-3
3.124234980E-1,1.374445739E-3,-1.527161949E-4,-1.527161949E-4
3.145510500E-1,1.527161949E-4,2.290742937E-3,1.069013379E-3
3.166786020E-1,1.374445739E-3,-1.374445739E-3,-1.527161949E-4
3.188061540E-1,1.527161949E-4,-1.527161949E-4,-1.527161949E-4
3.209337580E-1,1.527161949E-4,-1.527161949E-4,-1.527161949E-4
3.230613100E-1,-1.069013379E-3,1.069013379E-3,1.069013379E-3
3.251888620E-1,1.527161949E-4,-1.374445739E-3,-1.374445739E-3
3.273164140E-1,1.374445739E-3,1.069013379E-3,2.290742937E-3
3.294439660E-1,1.527161949E-4,-1.527161949E-4,-1.527161949E-4
3.315715710E-1,1.527161949E-4,1.069013379E-3,-1.527161949E-4
3.336991230E-1,1.527161949E-4,1.069013379E-3,-1.374445739E-3
3.358266750E-1,-1.069013379E-3,-1.527161949E-4,1.069013379E-3
3.379542270E-1,-1.069013379E-3,-1.527161949E-4,1.069013379E-3
3.400817790E-1,1.527161949E-4,-1.374445739E-3,-1.527161949E-4
3.422093310E-1,1.527161949E-4,1.069013379E-3,-1.527161949E-4
3.443369350E-1,1.527161949E-4,1.069013379E-3,1.069013379E-3
3.464644870E-1,-1.069013379E-3,1.069013379E-3,-1.527161949E-4
3.485920390E-1,1.527161949E-4,-1.527161949E-4,-1.527161949E-4
3.507195910E-1,1.527161949E-4,-1.527161949E-4,-1.527161949E-4
3.528471960E-1,1.527161949E-4,1.069013379E-3,-1.527161949E-4
3.549747480E-1,1.374445739E-3,-1.527161949E-4,-1.374445739E-3
3.571023000E-1,1.527161949E-4,-1.527161949E-4,-1.527161949E-4
3.592298520E-1,-1.069013379E-3,1.069013379E-3,1.069013379E-3
3.613574040E-1,1.527161949E-4,1.069013379E-3,-1.527161949E-4
3.634850080E-1,1.527161949E-4,-1.527161949E-4,-1.527161949E-4
3.656125600E-1,-1.069013379E-3,-1.527161949E-4,1.069013379E-3
3.677401120E-1,1.374445739E-3,-1.527161949E-4,-1.527161949E-4
3.698676640E-1,1.527161949E-4,1.069013379E-3,-1.527161949E-4
3.719952160E-1,-1.069013379E-3,-1.527161949E-4,1.069013379E-3
3.741228210E-1,1.527161949E-4,1.069013379E-3,1.069013379E-3
3.762503730E-1,1.527161949E-4,-1.527161949E-4,-1.527161949E-4
3.783779250E-1,-1.069013379E-3,-1.527161949E-4,-1.527161949E-4
3.805054770E-1,1.527161949E-4,-1.527161949E-4,1.069013379E-3
3.826330290E-1,-1.069013379E-3,-1.527161949E-4,-1.527161949E-4
3.847606330E-1,1.527161949E-4,-1.527161949E-4,-1.374445739E-3
3.868881850E-1,1.527161949E-4,-1.527161949E-4,-1.527161949E-4
3.890157370E-1,-1.069013379E-3,-1.527161949E-4,-1.527161949E-4
3.911432890E-1,1.527161949E-4,-1.527161949E-4,-1.374445739E-3
3.932708410E-1,1.527161949E-4,-1.527161949E-4,1.069013379E-3
3.953984460E-1,2.596175298E-3,-1.527161949E-4,-1.527161949E-4
3.975259980E-1,1.527161949E-4,-1.374445739E-3,-1.527161949E-4
3.996535500E-1,-1.069013379E-3,1.069013379E-3,-1.527161949E-4
4.017811020E-1,1.527161949E-4,1.069013379E-3,1.069013379E-3
4.039087060E-1,1.527161949E-4,2.290742937E-3,-1.527161949E-4
4.060362580E-1,-1.069013379E-3,-1.527161949E-4,-1.527161949E-4
4.081638100E-1,-1.069013379E-3,-1.527161949E-4,-1.527161949E-4
4.102913620E-1,-1.069013379E-3,1.069013379E-3,1.069013379E-3
4.124189140E-1,-1.069013379E-3,-1.527161949E-4,1.069013379E-3
4.145464660E-1,1.374445739E-3,1.069013379E-3,-1.527161949E-4
4.166740710E-1,1.374445739E-3,-1.527161949E-4,-1.527161949E-4
4.188016230E-1,1.374445739E-3,-2.596175298E-3,-1.374445739E-3
4.209291750E-1,-1.069013379E-3,1.069013379E-3,-1.527161949E-4
4.230567270E-1,1.527161949E-4,-1.374445739E-3,-1.527161949E-4
4.251843310E-1,1.527161949E-4,1.069013379E-3,-1.527161949E-4
4.273118830E-1,-2.290742937E-3,2.290742937E-3,1.069013379E-3
4.294394350E-1,1.527161949E-4,-1.527161949E-4,-1.527161949E-4
4.315669870E-1,-1.069013379E-3,1.069013379E-3,1.069013379E-3
4.336945390E-1,1.374445739E-3,-1.527161949E-4,-1.527161949E-4
4.358221430E-1,1.527161949E-4,1.069013379E-3,-1.527161949E-4
4.379496960E-1,-1.069013379E-3,1.069013379E-3,1.069013379E-3
4.400772480E-1,1.527161949E-4,-1.527161949E-4,-1.527161949E-4
4.422048000E-1,1.374445739E-3,-1.527161949E-4,-1.527161949E-4
4.443323520E-1,-1.069013379E-3,-1.527161949E-4,-2.596175298E-3
4.464599560E-1,1.527161949E-4,1.069013379E-3,-1.527161949E-4
4.485875080E-1,-1.069013379E-3,1.069013379E-3,-1.527161949E-4
4.507150600E-1,1.527161949E-4,-1.527161949E-4,1.069013379E-3
4.528426120E-1,1.374445739E-3,1.069013379E-3,1.069013379E-3
4.549701640E-1,-1.069013379E-3,-1.527161949E-4,-1.527161949E-4
4.570977680E-1,1.527161949E-4,-1.527161949E-4,-1.374445739E-3
4.592253210E-1,1.527161949E-4,1.069013379E-3,-1.527161949E-4
4.613528730E-1,1.374445739E-3,-1.527161949E-4,-1.527161949E-4
4.634804250E-1,1.374445739E-3,-1.527161949E-4,-1.374445739E-3
4.656079770E-1,1.527161949E-4,-1.527161949E-4,-1.527161949E-4
4.677355810E-1,1.527161949E-4,-1.527161949E-4,1.069013379E-3
4.698631330E-1,1.527161949E-4,-1.374445739E-3,-1.527161949E-4
4.719906850E-1,1.527161949E-4,-1.527161949E-4,-1.527161949E-4
4.741182370E-1,1.374445739E-3,-1.527161949E-4,-1.527161949E-4
4.762458410E-1,-1.069013379E-3,-1.527161949E-4,1.069013379E-3
4.783733930E-1,1.374445739E-3,-1.527161949E-4,-1.527161949E-4
4.805009460E-1,1.527161949E-4,1.069013379E-3,-1.527161949E-4
4.826284980E-1,-1.069013379E-3,1.069013379E-3,-1.527161949E-4
4.847560500E-1,-1.069013379E-3,-1.527161949E-4,2.290742937E-3
4.868836540E-1,1.527161949E-4,1.069013379E-3,1.069013379E-3
4.890112060E-1,-1.069013379E-3,-1.527161949E-4,1.069013379E-3
4.911387580E-1,1.527161949E-4,-1.527161949E-4,1.069013379E-3
4.932663100E-1,-1.069013379E-3,-1.527161949E-4,-1.374445739E-3
4.953938620E-1,1.527161949E-4,1.069013379E-3,-1.374445739E-3
4.975214140E-1,1.527161949E-4,1.069013379E-3,-1.527161949E-4
4.996490180E-1,1.527161949E-4,-1.527161949E-4,-1.527161949E-4
5.017765710E-1,1.527161949E-4,1.069013379E-3,1.069013379E-3
5.039041230E-1,1.527161949E-4,1.069013379E-3,-1.374445739E-3
5.060316750E-1,1.527161949E-4,-1.527161949E-4,1.069013379E-3
5.081592790E-1,-1.069013379E-3,1.069013379E-3,-1.527161949E-4
5.102868310E-1,-1.069013379E-3,-1.527161949E-4,-1.527161949E-4
5.124143830E-1,-1.069013379E-3,-1.374445739E-3,-1.527161949E-4
5.145419350E-1,-1.069013379E-3,-1.374445739E-3,-1.527161949E-4
5.166694870E-1,1.527161949E-4,1.069013379E-3,1.069013379E-3
5.187970910E-1,-1.069013379E-3,-1.374445739E-3,1.069013379E-3
5.209246430E-1,-1.069013379E-3,-1.374445739E-3,-1.527161949E-4
5.230521960E-1,1.527161949E-4,1.069013379E-3,1.069013379E-3
5.251797480E-1,-1.069013379E-3,1.069013379E-3,-1.527161949E-4
5.273073520E-1,-1.069013379E-3,-1.374445739E-3,-1.527161949E-4
5.294349040E-1,-1.069013379E-3,1.069013379E-3,1.069013379E-3
5.315624560E-1,-1.069013379E-3,-1.527161949E-4,-1.374445739E-3
5.336900080E-1,1.374445739E-3,1.069013379E-3,-1.527161949E-4
5.358175600E-1,2.596175298E-3,-1.527161949E-4,-1.527161949E-4
5.379451640E-1,-1.069013379E-3,-1.374445739E-3,-1.374445739E-3
5.400727160E-1,1.527161949E-4,1.069013379E-3,-1.527161949E-4
5.422002680E-1,1.527161949E-4,-1.527161949E-4,1.069013379E-3
5.443278210E-1,1.374445739E-3,-1.374445739E-3,-1.374445739E-3
5.464554250E-1,1.527161949E-4,-1.527161949E-4,-1.527161949E-4
5.485829250E-1,1.527161949E-4,-1.527161949E-4,-1.527161949E-4
5.507105290E-1,-1.069013379E-3,-1.527161949E-4,1.069013379E-3
5.528380810E-1,-1.069013379E-3,-1.527161949E-4,1.069013379E-3
5.549656330E-1,1.527161949E-4,1.069013379E-3,1.069013379E-3
5.570931850E-1,1.527161949E-4,-1.527161949E-4,1.069013379E-3
5.592207890E-1,1.374445739E-3,-1.527161949E-4,1.069013379E-3
5.613483410E-1,1.374445739E-3,1.069013379E-3,-1.527161949E-4
5.634758930E-1,-1.069013379E-3,1.069013379E-3,1.069013379E-3
5.656034460E-1,1.527161949E-4,-1.527161949E-4,-1.374445739E-3
5.677310500E-1,-1.069013379E-3,-1.527161949E-4,-1.527161949E-4
5.698586020E-1,1.527161949E-4,-1.527161949E-4,-1.527161949E-4
5.719861540E-1,-1.069013379E-3,1.069013379E-3,-1.527161949E-4
5.741137060E-1,1.374445739E-3,-1.527161949E-4,-1.527161949E-4
5.762412580E-1,1.527161949E-4,1.069013379E-3,-1.527161949E-4
5.783688100E-1,1.527161949E-4,1.069013379E-3,-1.527161949E-4
5.804964140E-1,1.374445739E-3,-1.527161949E-4,-1.527161949E-4
5.826239660E-1,1.374445739E-3,1.069013379E-3,1.069013379E-3
5.847515180E-1,1.374445739E-3,1.069013379E-3,1.069013379E-3
5.868790710E-1,1.527161949E-4,2.290742937E-3,-1.527161949E-4
5.890066230E-1,1.527161949E-4,1.069013379E-3,-1.527161949E-4
5.911342270E-1,1.374445739E-3,1.069013379E-3,-1.527161949E-4
5.932617790E-1,1.527161949E-4,1.069013379E-3,-1.527161949E-4
5.953893310E-1,1.527161949E-4,1.069013379E-3,-1.527161949E-4
5.975168830E-1,1.527161949E-4,1.069013379E-3,1.069013379E-3
5.996444870E-1,1.527161949E-4,1.069013379E-3,-1.527161949E-4
6.017720390E-1,1.374445739E-3,1.069013379E-3,1.069013379E-3
6.038995910E-1,1.374445739E-3,-1.527161949E-4,-1.527161949E-4
6.060271430E-1,1.527161949E-4,-1.527161949E-4,-1.527161949E-4
6.081546960E-1,1.374445739E-3,1.069013379E-3,1.069013379E-3
6.102823000E-1,-1.069013379E-3,1.069013379E-3,1.069013379E-3
6.124098520E-1,1.527161949E-4,-1.527161949E-4,-1.527161949E-4
6.145374040E-1,1.527161949E-4,1.069013379E-3,-1.374445739E-3
6.166649560E-1,1.374445739E-3,1.069013379E-3,-1.527161949E-4
6.187925080E-1,1.527161949E-4,-1.527161949E-4,1.069013379E-3
6.209201120E-1,1.527161949E-4,-1.374445739E-3,-1.527161949E-4
6.230476640E-1,1.374445739E-3,-1.527161949E-4,-1.527161949E-4
6.251752160E-1,1.374445739E-3,-1.527161949E-4,-1.374445739E-3
6.273027680E-1,1.527161949E-4,2.290742937E-3,-1.527161949E-4
6.294303730E-1,1.374445739E-3,1.069013379E-3,-1.527161949E-4
6.315579250E-1,-1.069013379E-3,-1.527161949E-4,-1.527161949E-4
6.336854770E-1,-1.069013379E-3,-1.527161949E-4,-1.527161949E-4
6.358130290E-1,1.527161949E-4,-1.527161949E-4,-1.527161949E-4
6.379405810E-1,1.527161949E-4,-1.527161949E-4,-1.527161949E-4
6.400681850E-1,1.374445739E-3,-1.527161949E-4,-1.527161949E-4
6.421957370E-1,-1.069013379E-3,-1.374445739E-3,-1.527161949E-4
6.443232890E-1,1.527161949E-4,-1.527161949E-4,2.290742937E-3
6.464508410E-1,1.527161949E-4,2.290742937E-3,-1.527161949E-4
6.485783930E-1,1.374445739E-3,1.069013379E-3,-1.527161949E-4
6.507059980E-1,1.527161949E-4,1.069013379E-3,-1.527161949E-4
6.528335500E-1,1.374445739E-3,1.069013379E-3,2.290742937E-3
6.549611020E-1,-1.069013379E-3,-1.527161949E-4,-1.527161949E-4
6.570886540E-1,-1.069013379E-3,-1.374445739E-3,-1.374445739E-3
6.592162060E-1,-2.290742937E-3,-1.527161949E-4,-1.374445739E-3
6.613438100E-1,-1.069013379E-3,1.069013379E-3,-1.527161949E-4
6.634713620E-1,-2.290742937E-3,1.069013379E-3,1.069013379E-3
6.655989140E-1,1.527161949E-4,-1.527161949E-4,-1.374445739E-3
6.677264660E-1,1.374445739E-3,-1.527161949E-4,-1.527161949E-4
6.698540180E-1,1.527161949E-4,1.069013379E-3,-2.596175298E-3
6.719816230E-1,1.527161949E-4,-1.527161949E-4,-1.374445739E-3
6.741091750E-1,1.527161949E-4,1.069013379E-3,-1.374445739E-3
6.762367270E-1,-1.069013379E-3,-1.527161949E-4,-1.374445739E-3
6.783642790E-1,1.374445739E-3,-1.527161949E-4,1.069013379E-3
6.804918310E-1,-1.069013379E-3,-1.374445739E-3,-1.527161949E-4
6.826194350E-1,1.527161949E-4,-1.527161949E-4,1.069013379E-3
6.847469870E-1,-1.069013379E-3,-1.527161949E-4,-1.527161949E-4
6.868745390E-1,1.374445739E-3,-1.527161949E-4,-1.374445739E-3
6.890020910E-1,1.527161949E-4,-1.527161949E-4,-1.527161949E-4
6.911296430E-1,1.527161949E-4,-1.527161949E-4,-1.527161949E-4
6.932572480E-1,-1.069013379E-3,-1.527161949E-4,-1.527161949E-4
6.953848000E-1,-2.290742937E-3,-1.374445739E-3,1.069013379E-3
6.975123520E-1,-1.069013379E-3,-1.374445739E-3,1.069013379E-3
6.996399040E-1,-1.069013379E-3,-1.374445739E-3,-1.527161949E-4
7.017674560E-1,-2.290742937E-3,-1.374445739E-3,1.069013379E-3
7.038950600E-1,1.527161949E-4,-1.527161949E-4,-1.527161949E-4
7.060226120E-1,1.527161949E-4,-1.527161949E-4,1.069013379E-3
7.081501640E-1,-1.069013379E-3,-1.527161949E-4,1.069013379E-3
7.102777160E-1,1.374445739E-3,-1.527161949E-4,-1.527161949E-4
7.124053210E-1,1.527161949E-4,-1.374445739E-3,1.069013379E-3
7.145328730E-1,1.374445739E-3,-1.374445739E-3,1.069013379E-3
7.166604250E-1,1.374445739E-3,-1.374445739E-3,1.069013379E-3
7.187879770E-1,1.374445739E-3,-1.527161949E-4,-1.527161949E-4
7.209155290E-1,1.527161949E-4,1.069013379E-3,1.069013379E-3
7.230431330E-1,1.527161949E-4,-1.527161949E-4,-1.527161949E-4
7.251706850E-1,1.527161949E-4,-1.527161949E-4,1.069013379E-3
7.272982370E-1,1.527161949E-4,2.290742937E-3,1.069013379E-3
7.294257890E-1,-1.069013379E-3,1.069013379E-3,1.069013379E-3
7.315533930E-1,-1.069013379E-3,1.069013379E-3,1.069013379E-3
7.336809460E-1,1.374445739E-3,-1.527161949E-4,1.069013379E-3
7.358084980E-1,2.596175298E-3,-1.527161949E-4,-1.527161949E-4
7.379360500E-1,-1.069013379E-3,1.069013379E-3,1.069013379E-3
7.400636020E-1,1.527161949E-4,-1.527161949E-4,1.069013379E-3
7.421912060E-1,1.527161949E-4,1.069013379E-3,-1.527161949E-4
7.443187580E-1,1.374445739E-3,-1.527161949E-4,-1.527161949E-4
7.464463100E-1,1.527161949E-4,-1.527161949E-4,-1.527161949E-4
7.485738620E-1,-1.069013379E-3,1.069013379E-3,-1.527161949E-4
7.507014140E-1,1.527161949E-4,-1.527161949E-4,-1.527161949E-4
7.528290180E-1,1.374445739E-3,1.069013379E-3,1.069013379E-3
7.549565710E-1,1.527161949E-4,-1.527161949E-4,-1.374445739E-3
7.570841230E-1,-1.069013379E-3,-1.374445739E-3,1.069013379E-3
7.592116750E-1,-1.069013379E-3,-1.527161949E-4,-1.527161949E-4
7.613392270E-1,1.527161949E-4,-1.374445739E-3,1.069013379E-3
7.634668310E-1,1.527161949E-4,-1.527161949E-4,-1.527161949E-4
7.655943830E-1,1.527161949E-4,-1.527161949E-4,-1.527161949E-4
7.677219350E-1,1.527161949E-4,-1.374445739E-3,-1.527161949E-4
7.698494870E-1,1.527161949E-4,-1.527161949E-4,1.069013379E-3
7.719770390E-1,1.527161949E-4,1.069013379E-3,1.069013379E-3
7.741046430E-1,-1.069013379E-3,1.069013379E-3,-1.527161949E-4
7.762321960E-1,-1.069013379E-3,1.069013379E-3,1.069013379E-3
7.783597480E-1,-1.069013379E-3,-1.527161949E-4,-1.527161949E-4
7.804873000E-1,-1.069013379E-3,2.290742937E-3,2.290742937E-3
7.826149040E-1,1.527161949E-4,-1.374445739E-3,-1.527161949E-4
7.847424560E-1,-1.069013379E-3,-1.374445739E-3,-1.527161949E-4
7.868700080E-1,1.527161949E-4,1.069013379E-3,-1.527161949E-4
7.889975600E-1,1.527161949E-4,-1.527161949E-4,-1.527161949E-4
7.911251120E-1,1.527161949E-4,-1.527161949E-4,-1.527161949E-4
7.932527160E-1,-1.069013379E-3,-1.527161949E-4,1.069013379E-3
7.953802680E-1,1.374445739E-3,-1.527161949E-4,1.069013379E-3
7.975078210E-1,1.374445739E-3,-1.527161949E-4,1.069013379E-3
7.996353730E-1,1.527161949E-4,-1.374445739E-3,-1.527161949E-4
8.017629250E-1,1.374445739E-3,1.069013379E-3,-1.527161949E-4
8.038905290E-1,1.527161949E-4,1.069013379E-3,-1.374445739E-3
8.060180810E-1,-1.069013379E-3,1.069013379E-3,-1.527161949E-4
8.081456330E-1,1.374445739E-3,-1.527161949E-4,1.069013379E-3
8.102731850E-1,1.527161949E-4,1.069013379E-3,1.069013379E-3
8.124007890E-1,1.374445739E-3,1.069013379E-3,-1.527161949E-4
8.145283410E-1,1.527161949E-4,-1.527161949E-4,-1.527161949E-4
8.166558930E-1,1.374445739E-3,1.069013379E-3,-1.527161949E-4
8.187834460E-1,-1.069013379E-3,-1.374445739E-3,1.069013379E-3
8.209109980E-1,-1.069013379E-3,-1.527161949E-4,-1.527161949E-4
8.230386020E-1,1.527161949E-4,1.069013379E-3,-1.527161949E-4
8.251661540E-1,1.374445739E-3,1.069013379E-3,2.290742937E-3
8.272937060E-1,-1.069013379E-3,1.069013379E-3,-1.527161949E-4
8.294212580E-1,-1.069013379E-3,-1.527161949E-4,-1.527161949E-4
8.315488100E-1,1.527161949E-4,-1.527161949E-4,-1.374445739E-3
8.336764140E-1,1.527161949E-4,1.069013379E-3,1.069013379E-3
8.358039660E-1,1.374445739E-3,-1.527161949E-4,-1.527161949E-4
8.379315180E-1,1.374445739E-3,-1.527161949E-4,-1.527161949E-4
8.400590710E-1,-1.069013379E-3,1.069013379E-3,1.069013379E-3
8.421866230E-1,1.374445739E-3,-1.374445739E-3,-1.527161949E-4
8.443142270E-1,1.527161949E-4,-1.374445739E-3,-1.527161949E-4
8.464417790E-1,2.596175298E-3,1.069013379E-3,-1.527161949E-4
8.485693310E-1,1.527161949E-4,-1.527161949E-4,1.069013379E-3
8.506968830E-1,1.527161949E-4,-1.527161949E-4,-1.527161949E-4
8.528244870E-1,1.527161949E-4,1.069013379E-3,-1.374445739E-3
8.549520390E-1,-1.069013379E-3,-1.527161949E-4,1.069013379E-3
8.570795910E-1,1.527161949E-4,-1.527161949E-4,-1.374445739E-3
8.592071430E-1,1.527161949E-4,-1.527161949E-4,-1.527161949E-4
8.613346960E-1,1.527161949E-4,-1.374445739E-3,1.069013379E-3
8.634623000E-1,-1.069013379E-3,1.069013379E-3,1.069013379E-3
8.655898520E-1,-1.069013379E-3,1.069013379E-3,1.069013379E-3
8.677174040E-1,1.527161949E-4,1.069013379E-3,-1.527161949E-4
8.698449560E-1,1.527161949E-4,1.069013379E-3,-1.527161949E-4
8.719725080E-1,1.527161949E-4,-1.527161949E-4,-1.527161949E-4
8.741001120E-1,1.527161949E-4,-1.527161949E-4,1.069013379E-3
8.762276640E-1,1.374445739E-3,2.290742937E-3,-1.527161949E-4
8.783552160E-1,1.527161949E-4,1.069013379E-3,-1.527161949E-4
8.804827680E-1,1.374445739E-3,1.069013379E-3,1.069013379E-3
8.826103210E-1,1.527161949E-4,1.069013379E-3,1.069013379E-3
8.847379250E-1,1.527161949E-4,-1.527161949E-4,-1.374445739E-3
8.868654770E-1,1.527161949E-4,1.069013379E-3,-1.527161949E-4
8.889930290E-1,1.374445739E-3,1.069013379E-3,-1.527161949E-4
8.911205810E-1,1.527161949E-4,-1.527161949E-4,-1.527161949E-4
8.932481850E-1,1.527161949E-4,-1.527161949E-4,-1.527161949E-4
8.953757370E-1,-1.069013379E-3,1.069013379E-3,-1.527161949E-4
8.975032890E-1,-1.069013379E-3,-1.527161949E-4,-1.374445739E-3
8.996308410E-1,1.527161949E-4,-1.374445739E-3,-1.527161949E-4
9.017583930E-1,1.527161949E-4,-1.374445739E-3,-1.527161949E-4
9.038859460E-1,1.527161949E-4,-1.527161949E-4,-1.374445739E-3
9.060135500E-1,1.527161949E-4,-1.527161949E-4,-1.374445739E-3
9.081411020E-1,-1.069013379E-3,-1.527161949E-4,-1.527161949E-4
9.102686540E-1,-1.069013379E-3,-1.527161949E-4,-1.527161949E-4
9.123962060E-1,1.527161949E-4,1.069013379E-3,-1.527161949E-4
9.145238100E-1,1.527161949E-4,-1.527161949E-4,1.069013379E-3
9.166513620E-1,1.527161949E-4,-1.527161949E-4,1.069013379E-3
9.187789140E-1,1.374445739E-3,-1.527161949E-4,-1.527161949E-4
9.209064660E-1,1.374445739E-3,1.069013379E-3,1.069013379E-3
9.230340180E-1,1.374445739E-3,2.290742937E-3,1.069013379E-3
9.251616230E-1,1.374445739E-3,-1.527161949E-4,-1.527161949E-4
9.272891750E-1,-2.290742937E-3,1.069013379E-3,-1.527161949E-4
9.294167270E-1,1.527161949E-4,1.069013379E-3,-1.527161949E-4
9.315442790E-1,1.527161949E-4,-1.374445739E-3,-1.527161949E-4
9.336718310E-1,-1.069013379E-3,-1.374445739E-3,-1.527161949E-4
9.357994350E-1,-1.069013379E-3,-2.596175298E-3,-1.527161949E-4
9.379269870E-1,1.527161949E-4,-1.527161949E-4,-1.527161949E-4
9.400545390E-1,2.596175298E-3,1.069013379E-3,1.069013379E-3
9.421820910E-1,1.527161949E-4,1.069013379E-3,-1.527161949E-4
9.443096430E-1,1.527161949E-4,-1.527161949E-4,1.069013379E-3
9.464372480E-1,1.527161949E-4,-1.527161949E-4,-1.527161949E-4
9.485648000E-1,1.527161949E-4,-1.527161949E-4,-1.527161949E-4
9.506923520E-1,1.527161949E-4,-1.527161949E-4,1.069013379E-3
9.528199040E-1,-1.069013379E-3,-1.527161949E-4,-1.527161949E-4
9.549475080E-1,1.527161949E-4,-1.374445739E-3,1.069013379E-3
9.570750600E-1,-2.290742937E-3,-1.527161949E-4,-1.527161949E-4
9.592026120E-1,-2.290742937E-3,-1.527161949E-4,-1.527161949E-4
9.613301640E-1,1.527161949E-4,-1.527161949E-4,-1.527161949E-4
9.634577680E-1,1.527161949E-4,-1.527161949E-4,-1.527161949E-4
9.655853210E-1,1.527161949E-4,-1.527161949E-4,-1.527161949E-4
9.677128730E-1,2.596175298E-3,1.069013379E-3,1.069013379E-3
9.698404250E-1,1.374445739E-3,-1.374445739E-3,-1.527161949E-4
9.719679770E-1,-1.069013379E-3,-1.527161949E-4,-1.527161949E-4
9.740955290E-1,1.527161949E-4,1.069013379E-3,1.069013379E-3
9.762231330E-1,-2.290742937E-3,1.069013379E-3,-1.527161949E-4
9.783506850E-1,-1.069013379E-3,-1.374445739E-3,-1.527161949E-4
9.804782370E-1,1.527161949E-4,-1.527161949E-4,-1.527161949E-4
9.826057890E-1,1.527161949E-4,-1.374445739E-3,-1.527161949E-4
9.847333410E-1,1.374445739E-3,-1.374445739E-3,-1.374445739E-3
9.868609460E-1,2.596175298E-3,-1.527161949E-4,-1.527161949E-4
9.889884980E-1,1.374445739E-3,3.512472380E-3,-1.527161949E-4
9.911160500E-1,1.527161949E-4,1.069013379E-3,-1.527161949E-4
9.932436020E-1,1.374445739E-3,-1.374445739E-3,-1.527161949E-4
9.953712060E-1,1.374445739E-3,-1.527161949E-4,-1.527161949E-4
9.974987580E-1,1.527161949E-4,-1.527161949E-4,-1.527161949E-4
9.996263100E-1,1.527161949E-4,-1.527161949E-4,-1.527161949E-4
1.001753862E0,-1.069013379E-3,-1.527161949E-4,1.069013379E-3
1.003881414E0,-2.290742937E-3,-1.527161949E-4,1.069013379E-3
1.006009018E0,1.374445739E-3,1.069013379E-3,-1.527161949E-4
1.008136571E0,1.374445739E-3,1.069013379E-3,-1.527161949E-4
1.010264123E0,1.527161949E-4,1.069013379E-3,-1.527161949E-4
1.012391675E0,1.527161949E-4,-1.527161949E-4,-1.527161949E-4
1.014519227E0,1.527161949E-4,1.069013379E-3,1.069013379E-3
1.016646831E0,1.527161949E-4,-1.527161949E-4,1.069013379E-3
1.018774383E0,1.527161949E-4,-1.527161949E-4,-1.527161949E-4
1.020901935E0,1.527161949E-4,-1.527161949E-4,-1.527161949E-4
1.023029487E0,-1.069013379E-3,-1.527161949E-4,1.069013379E-3
1.025157039E0,1.374445739E-3,-1.374445739E-3,-1.527161949E-4
1.027284643E0,1.527161949E-4,-1.527161949E-4,-1.374445739E-3
1.029412196E0,-1.069013379E-3,-1.527161949E-4,1.069013379E-3
1.031539748E0,-1.069013379E-3,1.069013379E-3,1.069013379E-3
1.033667300E0,1.527161949E-4,2.290742937E-3,1.069013379E-3
1.035794904E0,1.527161949E-4,-1.374445739E-3,-1.527161949E-4
1.037922456E0,-2.290742937E-3,-1.527161949E-4,1.069013379E-3
1.040050008E0,1.527161949E-4,-1.527161949E-4,1.069013379E-3
1.042177560E0,1.527161949E-4,1.069013379E-3,-1.527161949E-4
1.044305112E0,-1.069013379E-3,-1.527161949E-4,1.069013379E-3
1.046432716E0,1.527161949E-4,-1.374445739E-3,1.069013379E-3
1.048560268E0,1.527161949E-4,-1.374445739E-3,-1.527161949E-4
1.050687821E0,-1.069013379E-3,1.069013379E-3,-1.527161949E-4
1.052815373E0,1.374445739E-3,-1.527161949E-4,-1.374445739E-3
1.054942925E0,1.374445739E-3,2.290742937E-3,1.069013379E-3
1.057070529E0,1.527161949E-4,-1.527161949E-4,1.069013379E-3
1.059198081E0,1.374445739E-3,-1.527161949E-4,-1.527161949E-4
1.061325633E0,-1.069013379E-3,-1.527161949E-4,1.069013379E-3
1.063453185E0,1.374445739E-3,-1.374445739E-3,1.069013379E-3
1.065580789E0,1.527161949E-4,1.069013379E-3,1.069013379E-3
1.067708341E0,1.374445739E-3,-1.527161949E-4,1.069013379E-3
1.069835893E0,1.527161949E-4,-1.374445739E-3,1.069013379E-3
1.071963446E0,-1.069013379E-3,-1.374445739E-3,1.069013379E-3
1.074090998E0,1.527161949E-4,1.069013379E-3,-1.527161949E-4
1.076218602E0,1.527161949E-4,-1.527161949E-4,-1.527161949E-4
1.078346154E0,1.527161949E-4,-1.527161949E-4,1.069013379E-3
1.080473706E0,-1.069013379E-3,1.069013379E-3,1.069013379E-3
1.082601258E0,1.374445739E-3,-1.527161949E-4,1.069013379E-3
1.084728862E0,1.527161949E-4,-1.527161949E-4,-1.527161949E-4
1.086856414E0,1.527161949E-4,-1.527161949E-4,1.069013379E-3
1.088983966E0,1.527161949E-4,-1.527161949E-4,-1.527161949E-4
1.091111518E0,1.527161949E-4,1.069013379E-3,-1.374445739E-3
1.093239071E0,1.374445739E-3,-1.527161949E-4,-1.527161949E-4
1.095366675E0,1.527161949E-4,-1.527161949E-4,1.069013379E-3
1.097494227E0,-3.512472380E-3,2.290742937E-3,-1.527161949E-4
1.099621779E0,-2.290742937E-3,-1.527161949E-4,-1.527161949E-4
1.101749331E0,1.527161949E-4,1.069013379E-3,-1.527161949E-4
1.103876883E0,-1.069013379E-3,1.069013379E-3,1.069013379E-3
1.106004487E0,-1.069013379E-3,-1.527161949E-4,1.069013379E-3
1.108132039E0,1.527161949E-4,-1.527161949E-4,-1.527161949E-4
1.110259591E0,1.374445739E-3,-1.374445739E-3,-1.527161949E-4
1.112387143E0,-1.069013379E-3,2.290742937E-3,-1.527161949E-4
1.114514696E0,-1.069013379E-3,1.069013379E-3,1.069013379E-3
1.116642300E0,-1.069013379E-3,-1.527161949E-4,-1.527161949E-4
1.118769852E0,1.527161949E-4,-1.527161949E-4,-1.527161949E-4
1.120897404E0,1.527161949E-4,1.069013379E-3,-1.527161949E-4
1.123024956E0,-1.069013379E-3,1.069013379E-3,-1.527161949E-4
1.125152508E0,1.374445739E-3,1.069013379E-3,-1.527161949E-4
1.127280112E0,1.527161949E-4,-1.527161949E-4,-1.527161949E-4
1.129407664E0,1.527161949E-4,-1.374445739E-3,1.069013379E-3
1.131535216E0,1.374445739E-3,2.290742937E-3,-1.527161949E-4
1.133662768E0,1.374445739E-3,2.290742937E-3,-1.527161949E-4
1.135790321E0,1.527161949E-4,-1.527161949E-4,-1.527161949E-4
1.137917925E0,1.527161949E-4,1.069013379E-3,1.069013379E-3
1.140045477E0,1.527161949E-4,-1.527161949E-4,1.069013379E-3
1.142173029E0,1.527161949E-4,1.069013379E-3,-1.374445739E-3
1.144300581E0,1.527161949E-4,2.290742937E-3,-1.527161949E-4
1.146428185E0,1.527161949E-4,2.290742937E-3,1.069013379E-3
1.148555737E0,1.374445739E-3,-2.596175298E-3,1.069013379E-3
1.150683289E0,1.527161949E-4,-1.374445739E-3,1.069013379E-3
1.152810841E0,1.527161949E-4,2.290742937E-3,1.069013379E-3
1.154938393E0,1.527161949E-4,-1.527161949E-4,1.069013379E-3
1.157065998E0,1.527161949E-4,-1.527161949E-4,1.069013379E-3
1.159193550E0,1.374445739E-3,-1.527161949E-4,-1.527161949E-4
1.161321102E0,-1.069013379E-3,-1.527161949E-4,1.069013379E-3
1.163448654E0,-1.069013379E-3,-1.527161949E-4,1.069013379E-3
1.165576258E0,-2.290742937E-3,-1.527161949E-4,-1.527161949E-4
1.167703810E0,-2.290742937E-3,-1.527161949E-4,-1.374445739E-3
1.169831362E0,-2.290742937E-3,-1.527161949E-4,-1.527161949E-4
1.171958914E0,1.527161949E-4,1.069013379E-3,-1.527161949E-4
1.174086466E0,1.527161949E-4,1.069013379E-3,-1.527161949E-4
1.176214071E0,1.374445739E-3,1.069013379E-3,-1.374445739E-3
1.178341623E0,1.527161949E-4,1.069013379E-3,1.069013379E-3
1.180469175E0,1.527161949E-4,-1.527161949E-4,1.069013379E-3
1.182596727E0,1.527161949E-4,1.069013379E-3,1.069013379E-3
1.184724279E0,-1.069013379E-3,-1.527161949E-4,-1.527161949E-4
1.186851831E0,1.527161949E-4,-1.527161949E-4,-1.527161949E-4
1.188979435E0,1.527161949E-4,-1.527161949E-4,-1.374445739E-3
1.191106987E0,1.527161949E-4,-1.527161949E-4,-1.527161949E-4
1.193234539E0,1.527161949E-4,-1.527161949E-4,-1.527161949E-4
1.195362091E0,1.527161949E-4,-1.527161949E-4,-1.527161949E-4
1.197489696E0,-1.069013379E-3,1.069013379E-3,-1.527161949E-4
1.199617248E0,1.374445739E-3,1.069013379E-3,-1.527161949E-4
1.201744800E0,1.374445739E-3,1.069013379E-3,-1.527161949E-4
1.203872352E0,1.527161949E-4,1.069013379E-3,-1.527161949E-4
1.205999956E0,1.527161949E-4,1.069013379E-3,-1.527161949E-4
1.208127508E0,1.527161949E-4,-1.527161949E-4,-1.527161949E-4
1.210255060E0,-1.069013379E-3,1.069013379E-3,-1.527161949E-4
1.212382612E0,1.374445739E-3,1.069013379E-3,-1.527161949E-4
1.214510164E0,-1.069013379E-3,1.069013379E-3,-1.527161949E-4
1.216637716E0,1.527161949E-4,1.069013379E-3,-1.527161949E-4
1.218765321E0,1.527161949E-4,-1.527161949E-4,-1.527161949E-4
1.220892873E0,2.596175298E-3,-1.527161949E-4,-1.527161949E-4
1.223020425E0,1.374445739E-3,2.290742937E-3,-1.527161949E-4
1.225147977E0,-1.069013379E-3,-1.527161949E-4,1.069013379E-3
1.227275581E0,-1.069013379E-3,1.069013379E-3,-1.527161949E-4
1.229403133E0,-1.069013379E-3,-1.374445739E-3,1.069013379E-3
1.231530685E0,1.527161949E-4,-1.527161949E-4,1.069013379E-3
1.233658237E0,1.527161949E-4,-1.374445739E-3,1.069013379E-3
1.235785789E0,1.374445739E-3,-1.527161949E-4,-1.527161949E-4
1.237913393E0,1.374445739E-3,-1.527161949E-4,-1.527161949E-4
1.240040946E0,1.527161949E-4,-1.527161949E-4,1.069013379E-3
1.242168498E0,1.527161949E-4,-1.527161949E-4,-1.527161949E-4
1.244296050E0,1.527161949E-4,-1.527161949E-4,-1.527161949E-4
1.246423654E0,1.527161949E-4,-1.527161949E-4,1.069013379E-3
1.248551206E0,1.527161949E-4,-1.527161949E-4,1.069013379E-3
1.250678758E0,1.527161949E-4,1.069013379E-3,1.069013379E-3
1.252806310E0,-1.069013379E-3,-1.527161949E-4,-1.527161949E-4
1.254933862E0,1.527161949E-4,-1.527161949E-4,1.069013379E-3
1.257061466E0,-1.069013379E-3,-1.527161949E-4,-1.527161949E-4
1.259189018E0,1.374445739E-3,-1.527161949E-4,1.069013379E-3
1.261316571E0,1.374445739E-3,-1.527161949E-4,-1.527161949E-4
1.263444123E0,1.527161949E-4,-1.527161949E-4,-1.527161949E-4
1.265571675E0,1.527161949E-4,-1.527161949E-4,1.069013379E-3
1.267699279E0,1.527161949E-4,-1.527161949E-4,-1.527161949E-4
1.269826831E0,1.527161949E-4,1.069013379E-3,-1.527161949E-4
1.271954383E0,-1.069013379E-3,-1.527161949E-4,1.069013379E-3
1.274081935E0,1.527161949E-4,-1.527161949E-4,-1.374445739E-3
1.276209539E0,1.527161949E-4,-1.374445739E-3,-1.527161949E-4
1.278337091E0,1.527161949E-4,1.069013379E-3,-1.527161949E-4
1.280464643E0,1.374445739E-3,-1.374445739E-3,-1.527161949E-4
1.282592196E0,-1.069013379E-3,-1.527161949E-4,-1.527161949E-4
1.284719748E0,1.374445739E-3,-1.374445739E-3,-1.527161949E-4
1.286847352E0,-1.069013379E-3,-1.374445739E-3,2.290742937E-3
1.288974904E0,1.374445739E-3,-1.527161949E-4,1.069013379E-3
1.291102456E0,1.374445739E-3,-1.527161949E-4,1.069013379E-3
1.293230008E0,1.527161949E-4,-1.527161949E-4,1.069013379E-3
1.295357560E0,1.527161949E-4,-1.527161949E-4,-1.527161949E-4
1.297485164E0,1.374445739E-3,-1.527161949E-4,-1.374445739E-3
1.299612716E0,1.527161949E-4,1.069013379E-3,1.069013379E-3
1.301740268E0,1.374445739E-3,-1.374445739E-3,-1.527161949E-4
1.303867821E0,-1.069013379E-3,1.069013379E-3,-1.527161949E-4
1.305995425E0,1.527161949E-4,-1.527161949E-4,-1.527161949E-4
1.308122977E0,1.374445739E-3,-1.374445739E-3,1.069013379E-3
1.310250529E0,1.374445739E-3,-1.374445739E-3,1.069013379E-3
1.312378081E0,-1.069013379E-3,-1.374445739E-3,-1.527161949E-4
1.314505633E0,-1.069013379E-3,-1.527161949E-4,-1.527161949E-4
1.316633237E0,-1.069013379E-3,-1.374445739E-3,-1.527161949E-4
1.318760789E0,-1.069013379E-3,-2.596175298E-3,-1.527161949E-4
1.320888341E0,1.527161949E-4,-2.596175298E-3,-1.527161949E-4
1.323015893E0,1.527161949E-4,-1.527161949E-4,1.069013379E-3
1.325143446E0,-1.069013379E-3,-1.527161949E-4,1.069013379E-3
1.327271050E0,1.527161949E-4,-1.374445739E-3,1.069013379E-3
1.329398602E0,1.527161949E-4,-1.374445739E-3,-1.527161949E-4
1.331526154E0,-1.069013379E-3,-1.374445739E-3,1.069013379E-3
1.333653706E0,1.527161949E-4,2.290742937E-3,1.069013379E-3
1.335781258E0,1.527161949E-4,2.290742937E-3,-1.527161949E-4
1.337908862E0,1.527161949E-4,2.290742937E-3,1.069013379E-3
1.340036414E0,1.527161949E-4,-1.527161949E-4,-1.527161949E-4
1.342163966E0,1.527161949E-4,1.069013379E-3,-1.527161949E-4
1.344291518E0,-2.290742937E-3,-1.527161949E-4,1.069013379E-3
1.346419071E0,1.527161949E-4,-1.527161949E-4,-1.527161949E-4
1.348546675E0,1.374445739E-3,-1.527161949E-4,-1.527161949E-4
1.350674227E0,1.374445739E-3,-1.374445739E-3,-1.527161949E-4
1.352801779E0,1.527161949E-4,-1.527161949E-4,-1.527161949E-4
1.354929331E0,1.374445739E-3,-1.527161949E-4,-1.527161949E-4
1.357056935E0,1.374445739E-3,-1.527161949E-4,-1.527161949E-4
1.359184487E0,1.527161949E-4,-1.527161949E-4,-1.527161949E-4
1.361312039E0,1.527161949E-4,1.069013379E-3,-1.527161949E-4
1.363439591E0,1.527161949E-4,-1.527161949E-4,1.069013379E-3
1.365567143E0,1.527161949E-4,-1.527161949E-4,-1.527161949E-4
1.367694748E0,1.374445739E-3,-1.527161949E-4,1.069013379E-3
1.369822300E0,1.527161949E-4,-1.374445739E-3,-1.527161949E-4
1.371949852E0,1.527161949E-4,-1.527161949E-4,-1.527161949E-4
1.374077404E0,1.527161949E-4,-1.527161949E-4,1.069013379E-3
1.376204956E0,1.527161949E-4,-1.527161949E-4,-1.374445739E-3
1.378332560E0,1.527161949E-4,-2.596175298E-3,1.069013379E-3
1.380460112E0,1.374445739E-3,-1.374445739E-3,-1.527161949E-4
1.382587664E0,1.527161949E-4,-1.527161949E-4,-1.527161949E-4
1.384715216E0,-1.069013379E-3,-1.527161949E-4,2.290742937E-3
1.386842768E0,2.596175298E-3,-1.374445739E-3,-1.527161949E-4
1.388970373E0,1.527161949E-4,1.069013379E-3,-1.527161949E-4
1.391097925E0,1.527161949E-4,-1.374445739E-3,-1.527161949E-4
1.393225477E0,1.527161949E-4,1.069013379E-3,-1.527161949E-4
1.395353029E0,1.374445739E-3,-1.527161949E-4,-1.527161949E-4
1.397480633E0,1.527161949E-4,-1.374445739E-3,1.069013379E-3
1.399608185E0,-1.069013379E-3,-1.527161949E-4,1.069013379E-3
1.401735737E0,-1.069013379E-3,-1.527161949E-4,-1.527161949E-4
1.403863289E0,1.527161949E-4,1.069013379E-3,1.069013379E-3
1.405990893E0,1.374445739E-3,-1.527161949E-4,1.069013379E-3
1.408118446E0,1.527161949E-4,1.069013379E-3,1.069013379E-3
1.410245998E0,1.527161949E-4,-1.527161949E-4,1.069013379E-3
1.412373550E0,1.527161949E-4,-1.374445739E-3,2.290742937E-3
1.414501102E0,1.374445739E-3,-1.527161949E-4,-1.527161949E-4
1.416628654E0,1.527161949E-4,-1.374445739E-3,-1.527161949E-4
1.418756258E0,-2.290742937E-3,-1.374445739E-3,1.069013379E-3
1.420883810E0,-1.069013379E-3,-1.374445739E-3,-1.527161949E-4
1.423011362E0,1.374445739E-3,-1.527161949E-4,1.069013379E-3
1.425138914E0,-1.069013379E-3,-1.527161949E-4,-1.527161949E-4
1.427266518E0,1.374445739E-3,-1.527161949E-4,1.069013379E-3
1.429394071E0,1.527161949E-4,1.069013379E-3,1.069013379E-3
1.431521623E0,1.527161949E-4,-1.527161949E-4,-1.527161949E-4
1.433649175E0,1.527161949E-4,-1.527161949E-4,-1.374445739E-3
1.435776727E0,-1.069013379E-3,-1.527161949E-4,-1.374445739E-3
1.437904331E0,1.527161949E-4,1.069013379E-3,1.069013379E-3
1.440031883E0,-1.069013379E-3,-1.527161949E-4,2.290742937E-3
1.442159435E0,1.527161949E-4,1.069013379E-3,1.069013379E-3
1.444286987E0,1.527161949E-4,1.069013379E-3,1.069013379E-3
1.446414539E0,1.374445739E-3,-1.527161949E-4,-1.527161949E-4
1.448542143E0,1.527161949E-4,1.069013379E-3,-1.527161949E-4
1.450669696E0,1.527161949E-4,2.290742937E-3,-1.374445739E-3
1.452797248E0,1.527161949E-4,1.069013379E-3,-1.527161949E-4
1.454924800E0,-1.069013379E-3,1.069013379E-3,1.069013379E-3
1.457052352E0,1.527161949E-4,-1.527161949E-4,-1.374445739E-3
1.459179956E0,-1.069013379E-3,-1.527161949E-4,-1.527161949E-4
1.461307508E0,1.527161949E-4,-1.527161949E-4,1.069013379E-3
1.463435060E0,1.527161949E-4,1.069013379E-3,1.069013379E-3
1.465562664E0,-1.069013379E-3,-1.374445739E-3,1.069013379E-3
1.467690164E0,-1.069013379E-3,2.290742937E-3,1.069013379E-3
1.469817768E0,1.527161949E-4,2.290742937E-3,1.069013379E-3
1.471945321E0,1.527161949E-4,-1.527161949E-4,-1.527161949E-4
1.474072873E0,1.527161949E-4,-1.527161949E-4,-1.527161949E-4
1.476200477E0,1.527161949E-4,1.069013379E-3,1.069013379E-3
1.478328029E0,1.374445739E-3,1.069013379E-3,-1.527161949E-4
1.480455581E0,1.527161949E-4,-1.527161949E-4,2.290742937E-3
1.482583133E0,1.374445739E-3,-2.596175298E-3,1.069013379E-3
1.484710685E0,1.527161949E-4,1.069013379E-3,1.069013379E-3
1.486838237E0,1.527161949E-4,-1.527161949E-4,2.290742937E-3
1.488965841E0,-1.069013379E-3,-1.527161949E-4,2.290742937E-3
1.491093393E0,1.527161949E-4,-1.527161949E-4,1.069013379E-3
1.493220946E0,1.374445739E-3,1.069013379E-3,1.069013379E-3
1.495348498E0,1.527161949E-4,1.069013379E-3,2.290742937E-3
1.497476102E0,1.527161949E-4,-1.527161949E-4,1.069013379E-3
1.499603654E0,1.527161949E-4,-1.527161949E-4,1.069013379E-3
1.501731206E0,-1.069013379E-3,2.290742937E-3,2.290742937E-3
1.503858758E0,1.527161949E-4,2.290742937E-3,1.069013379E-3
1.505986310E0,1.527161949E-4,-1.527161949E-4,3.512472380E-3
1.508113914E0,-1.069013379E-3,1.069013379E-3,5.955931731E-3
1.510241466E0,-1.069013379E-3,-2.596175298E-3,2.306014486E-2
1.512369018E0,-3.512472380E-3,-1.527161949E-4,8.659008145E-2
1.514496571E0,1.374445739E-3,4.734201822E-3,1.623373181E-1
1.516624123E0,1.527161949E-4,2.290742937E-3,2.503018379E-1
1.518751727E0,-7.177661173E-3,1.084284950E-2,3.321577311E-1
1.520879279E0,2.596175298E-3,2.183841541E-2,4.103484154E-1
1.523006831E0,-3.512472380E-3,1.084284950E-2,4.714348912E-1
1.525134383E0,-2.290742937E-3,1.450803876E-2,5.166388750E-1
1.527261987E0,-3.512472380E-3,2.306014486E-2,5.471821427E-1
1.529389539E0,-1.069013379E-3,1.939495653E-2,5.691732764E-1
1.531517091E0,-4.734201822E-3,1.817322709E-2,5.801688433E-1
1.533644643E0,-1.069013379E-3,1.817322709E-2,5.813905597E-1
1.535772196E0,-2.290742937E-3,2.061668597E-2,5.752819180E-1
1.537899800E0,-3.512472380E-3,2.061668597E-2,5.630646348E-1
1.540027352E0,-4.734201822E-3,1.084284950E-2,5.471821427E-1
1.542154904E0,-4.734201822E-3,1.572976820E-2,5.276344419E-1
1.544282456E0,-3.512472380E-3,1.328630932E-2,5.068650246E-1
1.546410008E0,1.527161949E-4,1.695149764E-2,4.848739207E-1
1.548537612E0,-2.290742937E-3,1.939495653E-2,4.628827870E-1
1.550665164E0,-1.069013379E-3,1.939495653E-2,4.421133697E-1
1.552792716E0,1.527161949E-4,1.817322709E-2,4.189005196E-1
1.554920268E0,-3.512472380E-3,9.621120058E-3,3.969093859E-1
1.557047873E0,-4.734201822E-3,5.955931731E-3,3.761399984E-1
1.559175425E0,1.527161949E-4,8.399390616E-3,3.602575064E-1
1.561302977E0,1.527161949E-4,2.061668597E-2,3.455967605E-1
1.563430529E0,2.596175298E-3,1.572976820E-2,3.333794475E-1
1.565558081E0,1.374445739E-3,1.206457894E-2,3.223838806E-1
1.567685685E0,-1.069013379E-3,1.206457894E-2,3.138317764E-1
1.569813237E0,1.527161949E-4,1.084284950E-2,3.089448512E-1
1.571940789E0,-2.290742937E-3,1.328630932E-2,3.040579557E-1
1.574068341E0,1.527161949E-4,8.399390616E-3,3.040579557E-1
1.576195893E0,-1.069013379E-3,7.177661173E-3,3.052796721E-1
1.578323498E0,-1.069013379E-3,1.328630932E-2,3.138317764E-1
1.580451050E0,-1.069013379E-3,1.084284950E-2,3.187187016E-1
1.582578602E0,1.527161949E-4,5.955931731E-3,3.297142684E-1
1.584706154E0,1.527161949E-4,9.621120058E-3,3.407098353E-1
1.586833706E0,-2.290742937E-3,1.328630932E-2,3.529271185E-1
1.588961310E0,2.596175298E-3,1.939495653E-2,3.651444316E-1
1.591088862E0,-4.734201822E-3,8.399390616E-3,3.785834610E-1
1.593216414E0,-1.069013379E-3,7.177661173E-3,3.895790279E-1
1.595343966E0,-2.290742937E-3,1.084284950E-2,4.005745649E-1
1.597471518E0,-1.069013379E-3,1.328630932E-2,4.079049528E-1
1.599599123E0,-3.512472380E-3,8.399390616E-3,4.152353406E-1
1.601726675E0,-1.069013379E-3,1.450803876E-2,4.225656986E-1
1.603854227E0,-1.069013379E-3,1.328630932E-2,4.262309074E-1
1.605981779E0,-1.069013379E-3,9.621120058E-3,4.323395491E-1
1.608109331E0,-2.290742937E-3,1.084284950E-2,4.347830117E-1
1.610236935E0,-3.512472380E-3,1.328630932E-2,4.372264743E-1
1.612364487E0,-3.512472380E-3,1.328630932E-2,4.421133697E-1
1.614492039E0,3.817904973E-3,1.939495653E-2,4.457785785E-1
1.616619643E0,-1.069013379E-3,2.061668597E-2,4.470002949E-1
1.618747196E0,1.527161949E-4,9.621120058E-3,4.494437575E-1
1.620874748E0,-2.290742937E-3,1.572976820E-2,4.518872201E-1
1.623002300E0,-2.290742937E-3,1.328630932E-2,4.531089365E-1
1.625129852E0,1.374445739E-3,8.399390616E-3,4.579958618E-1
1.627257456E0,-2.290742937E-3,1.206457894E-2,4.616610706E-1
1.629385008E0,-1.069013379E-3,1.084284950E-2,4.641045034E-1
1.631512560E0,1.527161949E-4,1.939495653E-2,4.689914286E-1
1.633640112E0,-2.290742937E-3,1.450803876E-2,4.726566374E-1
1.635767664E0,-1.069013379E-3,1.084284950E-2,4.763218164E-1
1.637895268E0,-2.290742937E-3,1.084284950E-2,4.824304581E-1
1.640022821E0,1.527161949E-4,1.328630932E-2,4.897608459E-1
1.642150373E0,1.527161949E-4,1.817322709E-2,4.970912039E-1
1.644277925E0,-2.290742937E-3,1.572976820E-2,5.007563829E-1
1.646405529E0,1.527161949E-4,1.084284950E-2,5.068650246E-1
1.648533081E0,1.527161949E-4,2.306014486E-2,5.117519498E-1
1.650660633E0,-2.290742937E-3,9.621120058E-3,5.178605914E-1
1.652788185E0,1.527161949E-4,1.206457894E-2,5.239692926E-1
1.654915737E0,-1.069013379E-3,1.939495653E-2,5.264127254E-1
1.657043289E0,-1.069013379E-3,1.206457894E-2,5.300779343E-1
1.659170893E0,-1.069013379E-3,1.450803876E-2,5.337430835E-1
1.661298446E0,1.374445739E-3,2.428187430E-2,5.349648595E-1
1.663425998E0,-2.290742937E-3,1.695149764E-2,5.349648595E-1
1.665553550E0,-4.734201822E-3,7.177661173E-3,5.349648595E-1
1.667681154E0,-2.290742937E-3,1.328630932E-2,5.374082923E-1
1.669808706E0,-1.069013379E-3,2.061668597E-2,5.361865759E-1
1.671936258E0,-1.069013379E-3,1.695149764E-2,5.386300087E-1
1.674063810E0,-2.290742937E-3,1.817322709E-2,5.410735011E-1
1.676191362E0,-2.290742937E-3,1.572976820E-2,5.422952175E-1
1.678318966E0,2.596175298E-3,1.695149764E-2,5.459604263E-1
1.680446518E0,-2.290742937E-3,2.183841541E-2,5.508472919E-1
1.682574071E0,-1.069013379E-3,1.328630932E-2,5.557342172E-1
1.684701623E0,-1.069013379E-3,1.572976820E-2,5.630646348E-1
1.686829227E0,1.527161949E-4,1.939495653E-2,5.691732764E-1
1.688956779E0,1.527161949E-4,2.306014486E-2,5.765036345E-1
1.691084331E0,-3.512472380E-3,1.817322709E-2,5.838339925E-1
1.693211883E0,1.374445739E-3,1.695149764E-2,5.923861265E-1
1.695339435E0,-1.069013379E-3,1.939495653E-2,5.997164845E-1
1.697466987E0,-2.290742937E-3,1.450803876E-2,6.046034098E-1
1.699594591E0,-2.290742937E-3,1.939495653E-2,6.119337678E-1
1.701722143E0,-3.512472380E-3,1.695149764E-2,6.143772602E-1
1.703849696E0,1.527161949E-4,1.817322709E-2,6.217076182E-1
1.705977248E0,1.374445739E-3,2.550360374E-2,6.278162599E-1
1.708104852E0,1.527161949E-4,2.183841541E-2,6.339249015E-1
1.710232404E0,-1.069013379E-3,1.572976820E-2,6.375901103E-1
1.712359956E0,-2.290742937E-3,1.450803876E-2,6.412553191E-1
1.714487508E0,2.596175298E-3,2.306014486E-2,6.449204683E-1
1.716615112E0,-1.069013379E-3,2.916879393E-2,6.498073936E-1
1.718742664E0,-2.290742937E-3,1.450803876E-2,6.522508860E-1
1.720870216E0,1.374445739E-3,2.183841541E-2,6.546943188E-1
1.722997768E0,-1.069013379E-3,2.306014486E-2,6.571378112E-1
1.725125321E0,-1.069013379E-3,1.817322709E-2,6.620246768E-1
1.727252925E0,-3.512472380E-3,1.939495653E-2,6.644681692E-1
1.729380477E0,2.596175298E-3,2.183841541E-2,6.693550944E-1
1.731508029E0,1.527161949E-4,2.428187430E-2,6.742420197E-1
1.733635581E0,-2.290742937E-3,1.572976820E-2,6.803506613E-1
1.735763133E0,1.527161949E-4,2.183841541E-2,6.901245117E-1
1.737890737E0,-1.069013379E-3,3.161225095E-2,6.986765862E-1
1.740018289E0,-2.290742937E-3,2.306014486E-2,7.084504366E-1
1.742145841E0,-1.069013379E-3,1.695149764E-2,7.182242870E-1
1.744273393E0,-1.069013379E-3,2.550360374E-2,7.292198539E-1
1.746400946E0,1.527161949E-4,3.039052337E-2,7.402154207E-1
1.748528550E0,-2.290742937E-3,2.550360374E-2,7.475457788E-1
1.750656102E0,-2.290742937E-3,1.817322709E-2,7.573196292E-1
1.752783654E0,1.527161949E-4,2.550360374E-2,7.670934200E-1
1.754911206E0,1.527161949E-4,2.916879393E-2,7.768672705E-1
1.757038810E0,-1.069013379E-3,2.428187430E-2,7.817541957E-1
1.759166362E0,1.374445739E-3,2.672533318E-2,7.878628373E-1
1.761293914E0,-2.290742937E-3,3.283398226E-2,7.890845537E-1
1.763421466E0,-2.290742937E-3,1.939495653E-2,7.915280461E-1
1.765549018E0,1.527161949E-4,2.183841541E-2,7.939714789E-1
1.767676571E0,1.527161949E-4,2.916879393E-2,7.976366878E-1
1.769804175E0,1.527161949E-4,3.161225095E-2,7.988584042E-1
1.771931727E0,-2.290742937E-3,1.939495653E-2,8.000801206E-1
1.774059279E0,-2.290742937E-3,2.183841541E-2,8.013018966E-1
1.776186831E0,1.374445739E-3,3.405570984E-2,8.025236130E-1
1.778314435E0,1.374445739E-3,3.405570984E-2,8.013018966E-1
1.780441987E0,-3.512472380E-3,1.817322709E-2,8.000801206E-1
1.782569539E0,1.527161949E-4,2.306014486E-2,8.037453294E-1
1.784697091E0,-1.069013379E-3,2.916879393E-2,8.025236130E-1
1.786824643E0,-2.290742937E-3,2.550360374E-2,8.037453294E-1
1.788952248E0,-1.069013379E-3,2.306014486E-2,8.037453294E-1
1.791079800E0,1.374445739E-3,2.794706449E-2,8.025236130E-1
1.793207352E0,1.527161949E-4,2.794706449E-2,8.013018966E-1
1.795334904E0,-3.512472380E-3,2.183841541E-2,8.000801206E-1
1.797462456E0,2.596175298E-3,2.672533318E-2,7.988584042E-1
1.799590060E0,-3.512472380E-3,2.672533318E-2,7.976366878E-1
1.801717612E0,1.527161949E-4,2.550360374E-2,7.988584042E-1
1.803845164E0,-1.069013379E-3,2.550360374E-2,7.976366878E-1
1.805972716E0,-4.734201822E-3,2.428187430E-2,7.976366878E-1
1.808100321E0,-1.069013379E-3,3.161225095E-2,7.964149714E-1
1.810227873E0,-4.734201822E-3,2.428187430E-2,7.951932549E-1
1.812355425E0,1.527161949E-4,2.916879393E-2,7.939714789E-1
1.814482977E0,-4.734201822E-3,2.672533318E-2,7.903063297E-1
1.816610529E0,1.527161949E-4,2.672533318E-2,7.878628373E-1
1.818738133E0,-1.069013379E-3,2.672533318E-2,7.854194045E-1
1.820865685E0,1.527161949E-4,3.039052337E-2,7.829759121E-1
1.822993237E0,-3.512472380E-3,2.916879393E-2,7.805324793E-1
1.825120789E0,1.527161949E-4,2.672533318E-2,7.793107629E-1
1.827248341E0,-2.290742937E-3,2.672533318E-2,7.756455541E-1
1.829375946E0,-3.512472380E-3,2.550360374E-2,7.744238377E-1
1.831503498E0,1.527161949E-4,2.916879393E-2,7.732021213E-1
1.833631050E0,-3.512472380E-3,2.672533318E-2,7.719803452E-1
1.835758602E0,1.527161949E-4,2.794706449E-2,7.707586288E-1
1.837886206E0,-2.290742937E-3,2.672533318E-2,7.683151960E-1
1.840013758E0,-2.290742937E-3,2.550360374E-2,7.658717036E-1
1.842141310E0,1.374445739E-3,3.039052337E-2,7.622065544E-1
1.844268862E0,-1.069013379E-3,3.039052337E-2,7.609847784E-1
1.846396466E0,-1.069013379E-3,2.306014486E-2,7.585413456E-1
1.848523966E0,-2.290742937E-3,2.061668597E-2,7.548761368E-1
1.850651571E0,1.527161949E-4,2.794706449E-2,7.524327040E-1
1.852779123E0,-2.290742937E-3,2.794706449E-2,7.463240623E-1
1.854906675E0,2.596175298E-3,2.550360374E-2,7.426588535E-1
1.857034279E0,-1.069013379E-3,2.428187430E-2,7.341067195E-1
1.859161831E0,1.527161949E-4,2.672533318E-2,7.292198539E-1
1.861289383E0,-1.069013379E-3,2.550360374E-2,7.255546451E-1
1.863416935E0,1.527161949E-4,2.306014486E-2,7.194460034E-1
1.865544487E0,-2.290742937E-3,2.306014486E-2,7.157807946E-1
1.867672091E0,-2.290742937E-3,2.428187430E-2,7.096721530E-1
1.869799643E0,-1.069013379E-3,2.672533318E-2,7.060069442E-1
1.871927196E0,-3.512472380E-3,2.428187430E-2,7.023417950E-1
1.874054748E0,-1.069013379E-3,2.428187430E-2,7.023417950E-1
1.876182300E0,-4.734201822E-3,1.572976820E-2,7.011200786E-1
1.878309904E0,-1.069013379E-3,1.695149764E-2,7.023417950E-1
1.880437456E0,-4.734201822E-3,1.817322709E-2,6.974548697E-1
1.882565008E0,-3.512472380E-3,2.061668597E-2,6.986765862E-1
1.884692560E0,-4.734201822E-3,1.450803876E-2,6.998983026E-1
1.886820112E0,1.374445739E-3,2.428187430E-2,7.035635114E-1
1.888947716E0,-1.069013379E-3,4.016435891E-2,7.060069442E-1
1.891075268E0,-4.734201822E-3,2.550360374E-2,7.060069442E-1
1.893202821E0,1.374445739E-3,1.450803876E-2,7.084504366E-1
1.895330373E0,-7.177661173E-3,1.328630932E-2,7.072287202E-1
1.897457977E0,1.527161949E-4,2.061668597E-2,7.108938694E-1
1.899585529E0,1.527161949E-4,2.794706449E-2,7.121156454E-1
1.901713081E0,-1.069013379E-3,2.916879393E-2,7.133373618E-1
1.903840633E0,-7.177661173E-3,1.328630932E-2,7.145590782E-1
1.905968185E0,-4.734201822E-3,9.621120058E-3,7.182242870E-1
1.908095789E0,-1.069013379E-3,2.183841541E-2,7.218894362E-1
1.910223341E0,-1.069013379E-3,3.405570984E-2,7.267763615E-1
1.912350893E0,-3.512472380E-3,2.306014486E-2,7.292198539E-1
1.914478446E0,1.527161949E-4,1.572976820E-2,7.341067195E-1
1.916605998E0,-2.290742937E-3,2.306014486E-2,7.365502119E-1
1.918733602E0,-1.069013379E-3,2.916879393E-2,7.402154207E-1
1.920861154E0,-1.069013379E-3,2.794706449E-2,7.426588535E-1
1.922988706E0,-3.512472380E-3,1.939495653E-2,7.451022863E-1
1.925116258E0,-1.069013379E-3,1.817322709E-2,7.487674952E-1
1.927243810E0,-1.069013379E-3,2.550360374E-2,7.487674952E-1
1.929371414E0,-2.290742937E-3,2.428187430E-2,7.475457788E-1
1.931498966E0,1.374445739E-3,2.794706449E-2,7.475457788E-1
1.933626518E0,-3.512472380E-3,2.672533318E-2,7.451022863E-1
1.935754071E0,-5.955931731E-3,1.695149764E-2,7.414371371E-1
1.937881623E0,1.527161949E-4,1.817322709E-2,7.377719283E-1
1.940009227E0,1.527161949E-4,2.794706449E-2,7.316632867E-1
1.942136779E0,-1.069013379E-3,2.916879393E-2,7.279980779E-1
1.944264331E0,2.596175298E-3,2.672533318E-2,7.218894362E-1
1.946391883E0,-4.734201822E-3,2.061668597E-2,7.096721530E-1
1.948519487E0,-3.512472380E-3,1.328630932E-2,6.998983026E-1
1.950647039E0,5.039634649E-3,2.428187430E-2,6.950113773E-1
1.952774591E0,-3.512472380E-3,3.161225095E-2,6.840158105E-1
1.954902143E0,1.527161949E-4,2.061668597E-2,6.742420197E-1
1.957029696E0,2.596175298E-3,1.450803876E-2,6.669116020E-1
1.959157300E0,-2.290742937E-3,2.183841541E-2,6.583595276E-1
1.961284852E0,-1.069013379E-3,2.183841541E-2,6.498073936E-1
1.963412404E0,2.596175298E-3,2.183841541E-2,6.412553191E-1
1.965539956E0,-5.955931731E-3,1.572976820E-2,6.327031851E-1
1.967667508E0,3.817904973E-3,2.061668597E-2,6.278162599E-1
1.969795112E0,3.817904973E-3,3.405570984E-2,6.217076182E-1
1.971922664E0,-2.290742937E-3,2.794706449E-2,6.143772602E-1
1.974050216E0,-2.290742937E-3,5.955931731E-3,6.094903350E-1
1.976177768E0,3.817904973E-3,1.572976820E-2,6.070469022E-1
1.978305321E0,-1.069013379E-3,3.405570984E-2,6.058251262E-1
1.980432925E0,-2.290742937E-3,2.550360374E-2,6.046034098E-1
1.982560477E0,1.527161949E-4,9.621120058E-3,6.046034098E-1
1.984688029E0,1.527161949E-4,1.817322709E-2,6.094903350E-1
1.986815581E0,-3.512472380E-3,2.794706449E-2,6.143772602E-1
1.988942768E0,-1.069013379E-3,2.306014486E-2,6.192641854E-1
1.991070737E0,-2.290742937E-3,1.572976820E-2,6.217076182E-1
1.993198289E0,-2.290742937E-3,1.450803876E-2,6.217076182E-1
1.995325841E0,2.596175298E-3,2.428187430E-2,6.229293346E-1
1.997453393E0,-3.512472380E-3,2.794706449E-2,6.253728271E-1
1.999580581E0,-3.512472380E-3,1.572976820E-2,6.265945435E-1
2.001708550E0,1.527161949E-4,1.695149764E-2,6.302597523E-1
2.003836102E0,-1.069013379E-3,2.794706449E-2,6.339249015E-1
2.005963654E0,1.527161949E-4,2.916879393E-2,6.400335431E-1
2.008091258E0,-2.290742937E-3,1.939495653E-2,6.473639607E-1
2.010218810E0,-3.512472380E-3,1.450803876E-2,6.510291100E-1
2.012346362E0,1.374445739E-3,2.672533318E-2,6.571378112E-1
2.014473914E0,-2.290742937E-3,2.672533318E-2,6.644681692E-1
2.016601466E0,-1.069013379E-3,1.817322709E-2,6.681333780E-1
2.018729071E0,1.527161949E-4,1.939495653E-2,6.717985272E-1
2.020856623E0,-1.069013379E-3,2.306014486E-2,6.730202436E-1
2.022984175E0,-2.290742937E-3,2.306014486E-2,6.730202436E-1
2.025111727E0,-1.069013379E-3,1.817322709E-2,6.730202436E-1
2.027239279E0,-1.069013379E-3,1.939495653E-2,6.693550944E-1
2.029366831E0,-2.290742937E-3,1.695149764E-2,6.620246768E-1
2.031494435E0,-1.069013379E-3,1.695149764E-2,6.546943188E-1
2.033621987E0,1.527161949E-4,2.061668597E-2,6.449204683E-1
2.035749539E0,-1.069013379E-3,2.061668597E-2,6.314814687E-1
2.037877091E0,-2.290742937E-3,1.817322709E-2,6.192641854E-1
2.040004696E0,1.527161949E-4,1.450803876E-2,6.070469022E-1
2.042132248E0,-2.290742937E-3,1.939495653E-2,5.960513353E-1
2.044259800E0,-1.069013379E-3,1.817322709E-2,5.838339925E-1
2.046387352E0,-1.069013379E-3,1.572976820E-2,5.728384256E-1
2.048514904E0,1.527161949E-4,1.695149764E-2,5.642863512E-1
2.050642508E0,-1.069013379E-3,1.572976820E-2,5.593994260E-1
2.052770060E0,-1.069013379E-3,1.328630932E-2,5.545125008E-1
2.054897612E0,1.374445739E-3,1.328630932E-2,5.520690680E-1
2.057025164E0,-1.069013379E-3,1.450803876E-2,5.520690680E-1
2.059152768E0,-2.290742937E-3,1.572976820E-2,5.520690680E-1
2.061280321E0,1.527161949E-4,1.572976820E-2,5.557342172E-1
2.063407873E0,1.527161949E-4,1.695149764E-2,5.593994260E-1
2.065535425E0,-1.069013379E-3,1.572976820E-2,5.667297840E-1
2.067662977E0,-1.069013379E-3,1.572976820E-2,5.777253509E-1
2.069790581E0,1.374445739E-3,1.695149764E-2,5.899426341E-1
2.071918133E0,-2.290742937E-3,1.695149764E-2,5.997164845E-1
2.074045685E0,1.374445739E-3,1.695149764E-2,6.131555438E-1
2.076173237E0,-3.512472380E-3,1.817322709E-2,6.278162599E-1
2.078300841E0,-1.069013379E-3,1.817322709E-2,6.424770355E-1
2.080428393E0,1.527161949E-4,2.061668597E-2,6.559160352E-1
2.082555946E0,-1.069013379E-3,2.061668597E-2,6.669116020E-1
2.084683498E0,2.596175298E-3,2.306014486E-2,6.766854525E-1
2.086811050E0,-3.512472380E-3,1.817322709E-2,6.840158105E-1
2.088938654E0,-1.069013379E-3,1.939495653E-2,6.901245117E-1
2.091066206E0,1.374445739E-3,2.550360374E-2,6.986765862E-1
2.093193758E0,-1.069013379E-3,2.183841541E-2,7.035635114E-1
2.095321310E0,-2.290742937E-3,2.061668597E-2,7.047852278E-1
2.097448914E0,-2.290742937E-3,1.939495653E-2,7.023417950E-1
2.099576466E0,-2.290742937E-3,2.061668597E-2,7.023417950E-1
2.101704018E0,1.374445739E-3,2.550360374E-2,7.047852278E-1
2.103831571E0,-4.734201822E-3,2.183841541E-2,7.096721530E-1
2.105959123E0,-2.290742937E-3,2.061668597E-2,7.170025110E-1
2.108086727E0,1.527161949E-4,2.183841541E-2,7.194460034E-1
2.110214279E0,-3.512472380E-3,2.183841541E-2,7.218894362E-1
2.112341831E0,-1.069013379E-3,2.306014486E-2,7.255546451E-1
2.114469383E0,1.527161949E-4,2.061668597E-2,7.267763615E-1
2.116596935E0,-2.290742937E-3,2.183841541E-2,7.292198539E-1
2.118724539E0,-2.290742937E-3,2.183841541E-2,7.316632867E-1
2.120852091E0,-1.069013379E-3,2.550360374E-2,7.353284955E-1
2.122979643E0,-3.512472380E-3,2.061668597E-2,7.353284955E-1
2.125107196E0,-1.069013379E-3,1.939495653E-2,7.377719283E-1
2.127234748E0,1.527161949E-4,2.428187430E-2,7.377719283E-1
2.129362352E0,-5.955931731E-3,1.939495653E-2,7.353284955E-1
2.131489904E0,1.374445739E-3,2.061668597E-2,7.341067195E-1
2.133617456E0,-2.290742937E-3,2.061668597E-2,7.292198539E-1
2.135745008E0,-2.290742937E-3,2.306014486E-2,7.218894362E-1
2.137872612E0,-1.069013379E-3,1.695149764E-2,7.121156454E-1
2.140000164E0,1.527161949E-4,1.939495653E-2,7.047852278E-1
2.142127716E0,-2.290742937E-3,2.306014486E-2,6.937896609E-1
2.144255268E0,-2.290742937E-3,2.306014486E-2,6.827940941E-1
2.146382821E0,-2.290742937E-3,1.817322709E-2,6.705768108E-1
2.148510373E0,-2.290742937E-3,1.817322709E-2,6.595812440E-1
2.150637977E0,-3.512472380E-3,2.183841541E-2,6.485856771E-1
2.152765529E0,-1.069013379E-3,1.939495653E-2,6.375901103E-1
2.154893081E0,-1.069013379E-3,1.695149764E-2,6.290380359E-1
2.157020633E0,1.527161949E-4,2.183841541E-2,6.241511106E-1
2.159148185E0,-3.512472380E-3,1.817322709E-2,6.180424690E-1
2.161275789E0,-2.290742937E-3,2.061668597E-2,6.119337678E-1
2.163403341E0,-2.290742937E-3,1.939495653E-2,6.070469022E-1
2.165530893E0,1.527161949E-4,2.183841541E-2,6.033816934E-1
2.167658446E0,-1.069013379E-3,1.939495653E-2,6.009382010E-1
2.169786050E0,-1.069013379E-3,1.939495653E-2,6.021599770E-1
2.171913602E0,-3.512472380E-3,1.695149764E-2,6.046034098E-1
2.174041154E0,-1.069013379E-3,1.939495653E-2,6.046034098E-1
2.176168706E0,-2.290742937E-3,1.817322709E-2,6.021599770E-1
2.178296258E0,1.374445739E-3,2.183841541E-2,6.046034098E-1
2.180423862E0,-2.290742937E-3,1.939495653E-2,6.058251262E-1
2.182551414E0,1.527161949E-4,2.061668597E-2,6.094903350E-1
2.184678966E0,-3.512472380E-3,1.939495653E-2,6.131555438E-1
2.186806518E0,1.527161949E-4,2.306014486E-2,6.180424690E-1
2.188934071E0,-2.290742937E-3,1.939495653E-2,6.241511106E-1
2.191061675E0,-1.069013379E-3,2.061668597E-2,6.327031851E-1
2.193189227E0,-1.069013379E-3,2.428187430E-2,6.388118267E-1
2.195316779E0,-2.290742937E-3,2.428187430E-2,6.461422443E-1
2.197444331E0,-1.069013379E-3,2.306014486E-2,6.498073936E-1
2.199571935E0,-2.290742937E-3,2.306014486E-2,6.534726024E-1
2.201699487E0,-2.290742937E-3,2.306014486E-2,6.559160352E-1
2.203827039E0,-1.069013379E-3,2.428187430E-2,6.559160352E-1
2.205954591E0,-1.069013379E-3,2.183841541E-2,6.546943188E-1
2.208082143E0,1.527161949E-4,2.550360374E-2,6.583595276E-1
2.210209748E0,-2.290742937E-3,2.306014486E-2,6.595812440E-1
2.212337300E0,-1.069013379E-3,2.306014486E-2,6.583595276E-1
2.214464852E0,-3.512472380E-3,2.183841541E-2,6.583595276E-1
2.216592404E0,-1.069013379E-3,2.306014486E-2,6.595812440E-1
2.218719956E0,1.527161949E-4,2.550360374E-2,6.608029604E-1
2.220847560E0,-2.290742937E-3,2.061668597E-2,6.595812440E-1
2.222975112E0,-2.290742937E-3,2.306014486E-2,6.608029604E-1
2.225102664E0,-3.512472380E-3,2.428187430E-2,6.632464528E-1
2.227230216E0,-1.069013379E-3,2.672533318E-2,6.669116020E-1
2.229357768E0,-3.512472380E-3,2.428187430E-2,6.693550944E-1
2.231485373E0,-1.069013379E-3,2.306014486E-2,6.742420197E-1
2.233612925E0,-1.069013379E-3,2.550360374E-2,6.779071689E-1
2.235740477E0,-1.069013379E-3,2.550360374E-2,6.779071689E-1
2.237868029E0,-2.290742937E-3,2.916879393E-2,6.779071689E-1
2.239995581E0,-3.512472380E-3,2.183841541E-2,6.742420197E-1
2.242123185E0,-1.069013379E-3,2.550360374E-2,6.705768108E-1
2.244250737E0,-3.512472380E-3,2.794706449E-2,6.632464528E-1
2.246378289E0,-2.290742937E-3,2.550360374E-2,6.571378112E-1
2.248505841E0,-1.069013379E-3,2.183841541E-2,6.522508860E-1
2.250633446E0,-2.290742937E-3,2.183841541E-2,6.424770355E-1
2.252760998E0,-1.069013379E-3,2.428187430E-2,6.351466775E-1
2.254888550E0,-2.290742937E-3,2.672533318E-2,6.253728271E-1
2.257016102E0,-3.512472380E-3,2.306014486E-2,6.143772602E-1
2.259143654E0,-1.069013379E-3,2.183841541E-2,6.046034098E-1
2.261271258E0,-1.069013379E-3,2.550360374E-2,5.972730517E-1
2.263398810E0,-2.290742937E-3,2.061668597E-2,5.899426341E-1
2.265526362E0,1.527161949E-4,1.939495653E-2,5.813905597E-1
2.267653914E0,-3.512472380E-3,2.428187430E-2,5.703949928E-1
2.269781518E0,-1.069013379E-3,2.306014486E-2,5.618428588E-1
2.271909071E0,-2.290742937E-3,1.572976820E-2,5.520690680E-1
2.274036623E0,1.527161949E-4,2.061668597E-2,5.422952175E-1
2.276164175E0,-1.069013379E-3,1.939495653E-2,5.349648595E-1
2.278291727E0,-1.069013379E-3,1.695149764E-2,5.264127254E-1
2.280419331E0,1.527161949E-4,2.061668597E-2,5.227475166E-1
2.282546883E0,-3.512472380E-3,1.695149764E-2,5.190823674E-1
2.284674435E0,1.527161949E-4,1.939495653E-2,5.215258002E-1
2.286801987E0,1.527161949E-4,2.061668597E-2,5.227475166E-1
2.288929539E0,1.527161949E-4,2.061668597E-2,5.276344419E-1
2.291057143E0,-1.069013379E-3,1.939495653E-2,5.325213671E-1
2.293184696E0,-2.290742937E-3,2.183841541E-2,5.374082923E-1
2.295312248E0,-2.290742937E-3,2.183841541E-2,5.410735011E-1
2.297439800E0,-1.069013379E-3,2.183841541E-2,5.484038591E-1
2.299567404E0,-1.069013379E-3,2.061668597E-2,5.557342172E-1
2.301694956E0,-2.290742937E-3,2.183841541E-2,5.642863512E-1
2.303822508E0,-3.512472380E-3,2.061668597E-2,5.728384256E-1
2.305950060E0,-3.512472380E-3,2.183841541E-2,5.813905597E-1
2.308077612E0,-2.290742937E-3,2.061668597E-2,5.862774849E-1
2.310205164E0,-2.290742937E-3,2.306014486E-2,5.936078429E-1
2.312332768E0,-1.069013379E-3,2.183841541E-2,5.972730517E-1
2.314460321E0,-1.069013379E-3,2.428187430E-2,6.009382010E-1
2.316587873E0,1.527161949E-4,2.550360374E-2,6.021599770E-1
2.318715425E0,-3.512472380E-3,2.183841541E-2,6.021599770E-1
2.320843029E0,-3.512472380E-3,2.550360374E-2,6.009382010E-1
2.322970581E0,-3.512472380E-3,2.183841541E-2,5.960513353E-1
2.325098133E0,1.527161949E-4,2.306014486E-2,5.936078429E-1
2.327225685E0,-1.069013379E-3,2.428187430E-2,5.887209177E-1
2.329353237E0,-3.512472380E-3,2.306014486E-2,5.850557685E-1
2.331480841E0,-1.069013379E-3,1.939495653E-2,5.838339925E-1
2.333608393E0,-1.069013379E-3,2.306014486E-2,5.813905597E-1
2.335735946E0,-1.069013379E-3,2.061668597E-2,5.789470673E-1
2.337863498E0,-1.069013379E-3,2.428187430E-2,5.765036345E-1
2.339991050E0,-3.512472380E-3,1.939495653E-2,5.703949928E-1
2.342118654E0,1.527161949E-4,1.817322709E-2,5.679515004E-1
2.344246206E0,-3.512472380E-3,1.939495653E-2,5.642863512E-1
2.346373758E0,-1.069013379E-3,1.939495653E-2,5.655080676E-1
2.348501310E0,-1.069013379E-3,2.061668597E-2,5.618428588E-1
2.350628914E0,-1.069013379E-3,1.939495653E-2,5.593994260E-1
2.352756466E0,1.527161949E-4,1.939495653E-2,5.593994260E-1
2.354884018E0,-2.290742937E-3,1.817322709E-2,5.606211424E-1
2.357011571E0,-2.290742937E-3,1.939495653E-2,5.618428588E-1
2.359139123E0,-3.512472380E-3,2.183841541E-2,5.618428588E-1
2.361266727E0,1.527161949E-4,2.061668597E-2,5.593994260E-1
2.363394279E0,1.527161949E-4,1.939495653E-2,5.593994260E-1
2.365521831E0,-1.069013379E-3,2.061668597E-2,5.593994260E-1
2.367649383E0,-2.290742937E-3,2.061668597E-2,5.581777096E-1
2.369776935E0,-1.069013379E-3,1.572976820E-2,5.545125008E-1
2.371904539E0,-2.290742937E-3,1.817322709E-2,5.508472919E-1
2.374032091E0,-2.290742937E-3,2.183841541E-2,5.471821427E-1
2.376159643E0,-1.069013379E-3,1.695149764E-2,5.422952175E-1
2.378287196E0,-1.069013379E-3,1.695149764E-2,5.386300087E-1
2.380414800E0,1.527161949E-4,1.939495653E-2,5.349648595E-1
2.382542352E0,-2.290742937E-3,1.817322709E-2,5.300779343E-1
2.384669904E0,1.527161949E-4,1.695149764E-2,5.264127254E-1
2.386797456E0,-1.069013379E-3,1.572976820E-2,5.215258002E-1
2.388925008E0,1.374445739E-3,1.817322709E-2,5.166388750E-1
2.391052560E0,-2.290742937E-3,1.817322709E-2,5.117519498E-1
2.393180164E0,1.527161949E-4,1.695149764E-2,5.080868006E-1
2.395307716E0,-2.290742937E-3,1.450803876E-2,5.044215918E-1
2.397435268E0,1.374445739E-3,1.817322709E-2,5.007563829E-1
2.399562821E0,-2.290742937E-3,1.572976820E-2,4.983129501E-1
2.401690425E0,1.527161949E-4,1.817322709E-2,4.983129501E-1
2.403817977E0,-2.290742937E-3,1.817322709E-2,4.983129501E-1
2.405945529E0,-2.290742937E-3,1.817322709E-2,5.031998754E-1
2.408073081E0,1.527161949E-4,1.817322709E-2,5.044215918E-1
2.410200633E0,-3.512472380E-3,1.817322709E-2,5.093085170E-1
2.412328237E0,-2.290742937E-3,1.939495653E-2,5.117519498E-1
2.414455789E0,-3.512472380E-3,1.817322709E-2,5.178605914E-1
2.416583341E0,1.374445739E-3,1.939495653E-2,5.264127254E-1
2.418710893E0,-2.290742937E-3,1.939495653E-2,5.374082923E-1
2.420838446E0,-2.290742937E-3,1.939495653E-2,5.520690680E-1
2.422966050E0,-1.069013379E-3,2.306014486E-2,5.630646348E-1
2.425093602E0,-1.069013379E-3,2.061668597E-2,5.728384256E-1
2.427221154E0,1.527161949E-4,2.306014486E-2,5.838339925E-1
2.429348706E0,-3.512472380E-3,2.061668597E-2,5.923861265E-1
2.431476258E0,1.527161949E-4,1.817322709E-2,5.984947681E-1
2.433603862E0,-3.512472380E-3,2.306014486E-2,6.058251262E-1
2.435731414E0,-3.512472380E-3,2.183841541E-2,6.107120514E-1
2.437858966E0,1.527161949E-4,2.061668597E-2,6.168206930E-1
2.439986518E0,-3.512472380E-3,2.061668597E-2,6.192641854E-1
2.442114123E0,-1.069013379E-3,2.306014486E-2,6.204859018E-1
2.444241675E0,-3.512472380E-3,2.183841541E-2,6.192641854E-1
2.446369227E0,-1.069013379E-3,2.183841541E-2,6.204859018E-1
2.448496779E0,1.527161949E-4,2.061668597E-2,6.192641854E-1
2.450624331E0,1.374445739E-3,2.183841541E-2,6.143772602E-1
2.452751935E0,1.527161949E-4,2.061668597E-2,6.082686186E-1
2.454879487E0,-2.290742937E-3,2.061668597E-2,5.997164845E-1
2.457007039E0,-1.069013379E-3,1.939495653E-2,5.887209177E-1
2.459134591E0,-2.290742937E-3,1.939495653E-2,5.765036345E-1
2.461262143E0,-1.069013379E-3,1.695149764E-2,5.618428588E-1
2.463389748E0,-2.290742937E-3,1.572976820E-2,5.484038591E-1
2.465517300E0,1.527161949E-4,1.695149764E-2,5.325213671E-1
2.467644852E0,-1.069013379E-3,1.695149764E-2,5.178605914E-1
2.469772404E0,1.527161949E-4,1.695149764E-2,5.044215918E-1
2.471900008E0,-2.290742937E-3,1.817322709E-2,4.934260249E-1
2.474027560E0,-1.069013379E-3,1.450803876E-2,4.824304581E-1
2.476155112E0,1.527161949E-4,1.328630932E-2,4.738783538E-1
2.478282664E0,-1.069013379E-3,1.328630932E-2,4.653262496E-1
2.480410216E0,1.527161949E-4,1.695149764E-2,4.604393244E-1
2.482537821E0,-2.290742937E-3,1.695149764E-2,4.579958618E-1
2.484665373E0,-1.069013379E-3,1.450803876E-2,4.543306828E-1
2.486792925E0,1.527161949E-4,1.450803876E-2,4.531089365E-1
2.488920477E0,-1.069013379E-3,1.450803876E-2,4.531089365E-1
2.491048029E0,-1.069013379E-3,1.328630932E-2,4.518872201E-1
2.493175633E0,-2.290742937E-3,1.450803876E-2,4.518872201E-1
2.495303185E0,1.527161949E-4,1.572976820E-2,4.543306828E-1
2.497430737E0,-2.290742937E-3,1.572976820E-2,4.567741454E-1
2.499558289E0,-1.069013379E-3,1.572976820E-2,4.628827870E-1
2.501685841E0,-2.290742937E-3,1.695149764E-2,4.702131748E-1
2.503813446E0,-1.069013379E-3,1.817322709E-2,4.787652791E-1
2.505940998E0,-2.290742937E-3,1.817322709E-2,4.860956371E-1
2.508068550E0,-1.069013379E-3,2.061668597E-2,4.958694875E-1
2.510196102E0,-3.512472380E-3,1.939495653E-2,5.031998754E-1
2.512323706E0,-2.290742937E-3,1.817322709E-2,5.129737258E-1
2.514451258E0,1.527161949E-4,1.817322709E-2,5.227475166E-1
2.516578810E0,1.527161949E-4,2.061668597E-2,5.349648595E-1
2.518706362E0,-4.734201822E-3,2.061668597E-2,5.471821427E-1
2.520833914E0,-2.290742937E-3,1.939495653E-2,5.618428588E-1
2.522961466E0,-3.512472380E-3,2.183841541E-2,5.752819180E-1
2.525089071E0,-1.069013379E-3,2.306014486E-2,5.887209177E-1
2.527216623E0,-3.512472380E-3,2.183841541E-2,6.009382010E-1
2.529344175E0,-1.069013379E-3,2.306014486E-2,6.155989766E-1
2.531471727E0,-3.512472380E-3,2.550360374E-2,6.265945435E-1
2.533599331E0,-4.734201822E-3,2.306014486E-2,6.375901103E-1
2.535726883E0,-2.290742937E-3,2.428187430E-2,6.461422443E-1
2.537854435E0,-4.734201822E-3,2.061668597E-2,6.510291100E-1
2.539981987E0,-1.069013379E-3,2.428187430E-2,6.583595276E-1
2.542109539E0,-4.734201822E-3,2.306014486E-2,6.608029604E-1
2.544237143E0,-1.069013379E-3,2.794706449E-2,6.632464528E-1
2.546364696E0,-2.290742937E-3,2.550360374E-2,6.620246768E-1
2.548492248E0,-2.290742937E-3,2.550360374E-2,6.608029604E-1
2.550619800E0,-3.512472380E-3,2.306014486E-2,6.534726024E-1
2.552747404E0,-2.290742937E-3,2.183841541E-2,6.449204683E-1
2.554874956E0,-3.512472380E-3,2.306014486E-2,6.327031851E-1
2.557002508E0,-2.290742937E-3,2.061668597E-2,6.217076182E-1
2.559130060E0,-1.069013379E-3,2.183841541E-2,6.094903350E-1
2.561257612E0,-2.290742937E-3,2.183841541E-2,5.960513353E-1
2.563385216E0,-1.069013379E-3,2.183841541E-2,5.801688433E-1
2.565512768E0,-2.290742937E-3,2.061668597E-2,5.630646348E-1
2.567640321E0,-2.290742937E-3,1.939495653E-2,5.508472919E-1
2.569767873E0,-1.069013379E-3,2.061668597E-2,5.374082923E-1
2.571895425E0,-1.069013379E-3,1.939495653E-2,5.264127254E-1
2.574023029E0,-3.512472380E-3,1.695149764E-2,5.154171586E-1
2.576150581E0,-2.290742937E-3,1.695149764E-2,5.080868006E-1
2.578278133E0,-1.069013379E-3,1.695149764E-2,5.007563829E-1
2.580405685E0,-2.290742937E-3,1.939495653E-2,4.970912039E-1
2.582533237E0,-1.069013379E-3,1.939495653E-2,4.983129501E-1
2.584660841E0,-2.290742937E-3,1.572976820E-2,4.958694875E-1
2.586788393E0,-2.290742937E-3,1.939495653E-2,4.958694875E-1
2.588915946E0,-1.069013379E-3,1.695149764E-2,4.946477413E-1
2.591043498E0,-2.290742937E-3,1.817322709E-2,4.958694875E-1
2.593170685E0,-2.290742937E-3,1.817322709E-2,4.970912039E-1
2.595298654E0,-3.512472380E-3,1.695149764E-2,4.983129501E-1
2.597426206E0,1.527161949E-4,1.817322709E-2,5.007563829E-1
2.599553393E0,-2.290742937E-3,1.572976820E-2,5.068650246E-1
2.601681310E0,-2.290742937E-3,1.939495653E-2,5.141954422E-1
2.603808914E0,-1.069013379E-3,1.817322709E-2,5.215258002E-1
2.605936466E0,-1.069013379E-3,1.939495653E-2,5.276344419E-1
2.608064018E0,-2.290742937E-3,2.061668597E-2,5.374082923E-1
2.610191571E0,-2.290742937E-3,1.817322709E-2,5.447386503E-1
2.612319123E0,-1.069013379E-3,1.817322709E-2,5.532907844E-1
2.614446727E0,-2.290742937E-3,2.061668597E-2,5.630646348E-1
2.616574279E0,-2.290742937E-3,2.183841541E-2,5.752819180E-1
2.618701831E0,-3.512472380E-3,2.061668597E-2,5.887209177E-1
2.620829383E0,-1.069013379E-3,2.183841541E-2,6.009382010E-1
2.622956935E0,-2.290742937E-3,2.183841541E-2,6.119337678E-1
2.625084539E0,-2.290742937E-3,2.183841541E-2,6.265945435E-1
2.627212091E0,-2.290742937E-3,2.183841541E-2,6.400335431E-1
2.629339643E0,-3.512472380E-3,2.306014486E-2,6.485856771E-1
2.631467196E0,-1.069013379E-3,2.428187430E-2,6.571378112E-1
2.633594800E0,-1.069013379E-3,2.061668597E-2,6.632464528E-1
2.635722352E0,-3.512472380E-3,2.183841541E-2,6.693550944E-1
2.637849904E0,-1.069013379E-3,2.183841541E-2,6.681333780E-1
2.639977456E0,-1.069013379E-3,2.550360374E-2,6.656898856E-1
2.642105008E0,1.527161949E-4,2.306014486E-2,6.620246768E-1
2.644232612E0,-2.290742937E-3,1.939495653E-2,6.546943188E-1
2.646360164E0,-1.069013379E-3,2.061668597E-2,6.498073936E-1
2.648487716E0,-1.069013379E-3,2.183841541E-2,6.412553191E-1
2.650615268E0,-1.069013379E-3,2.183841541E-2,6.327031851E-1
2.652742873E0,-2.290742937E-3,2.183841541E-2,6.241511106E-1
2.654870425E0,-3.512472380E-3,1.939495653E-2,6.168206930E-1
2.656997977E0,-1.069013379E-3,1.695149764E-2,6.070469022E-1
2.659125529E0,-3.512472380E-3,2.306014486E-2,5.984947681E-1
2.661253081E0,-1.069013379E-3,1.817322709E-2,5.911644101E-1
2.663380633E0,-2.290742937E-3,1.817322709E-2,5.850557685E-1
2.665508237E0,-2.290742937E-3,2.061668597E-2,5.850557685E-1
2.667635789E0,-1.069013379E-3,1.817322709E-2,5.838339925E-1
2.669763341E0,1.527161949E-4,1.939495653E-2,5.813905597E-1
2.671890893E0,-1.069013379E-3,2.061668597E-2,5.801688433E-1
2.674018446E0,1.527161949E-4,1.695149764E-2,5.765036345E-1
2.676146050E0,-3.512472380E-3,1.817322709E-2,5.740602016E-1
2.678273602E0,-1.069013379E-3,2.061668597E-2,5.716167092E-1
2.680401154E0,-1.069013379E-3,1.695149764E-2,5.728384256E-1
2.682528706E0,-1.069013379E-3,1.939495653E-2,5.740602016E-1
2.684656310E0,1.527161949E-4,2.183841541E-2,5.740602016E-1
2.686783862E0,-2.290742937E-3,2.061668597E-2,5.728384256E-1
2.688911414E0,-2.290742937E-3,1.695149764E-2,5.703949928E-1
2.691038966E0,1.374445739E-3,2.183841541E-2,5.679515004E-1
2.693166518E0,-1.069013379E-3,1.817322709E-2,5.655080676E-1
2.695294071E0,-1.069013379E-3,1.817322709E-2,5.618428588E-1
2.697421675E0,-2.290742937E-3,2.183841541E-2,5.593994260E-1
2.699549227E0,-2.290742937E-3,1.817322709E-2,5.606211424E-1
2.701676779E0,-1.069013379E-3,1.939495653E-2,5.606211424E-1
2.703804331E0,-2.290742937E-3,1.939495653E-2,5.606211424E-1
2.705931935E0,-1.069013379E-3,1.939495653E-2,5.618428588E-1
2.708059487E0,1.527161949E-4,1.450803876E-2,5.642863512E-1
2.710187039E0,-1.069013379E-3,2.306014486E-2,5.716167092E-1
2.712314591E0,-1.069013379E-3,2.306014486E-2,5.789470673E-1
2.714442143E0,-3.512472380E-3,2.550360374E-2,5.850557685E-1
2.716569748E0,-3.512472380E-3,2.550360374E-2,5.972730517E-1
2.718697300E0,-3.512472380E-3,2.306014486E-2,6.094903350E-1
2.720824852E0,-2.290742937E-3,2.306014486E-2,6.204859018E-1
2.722952404E0,-2.290742937E-3,2.550360374E-2,6.314814687E-1
2.725079956E0,-2.290742937E-3,2.306014486E-2,6.424770355E-1
2.727207560E0,-1.069013379E-3,2.428187430E-2,6.498073936E-1
2.729335112E0,-2.290742937E-3,2.428187430E-2,6.595812440E-1
2.731462664E0,-1.069013379E-3,2.794706449E-2,6.693550944E-1
2.733590216E0,-3.512472380E-3,2.306014486E-2,6.791289449E-1
2.735717821E0,-3.512472380E-3,2.428187430E-2,6.876810193E-1
2.737845373E0,-2.290742937E-3,2.672533318E-2,6.937896609E-1
2.739972925E0,-4.734201822E-3,2.672533318E-2,6.998983026E-1
2.742100477E0,-1.069013379E-3,2.916879393E-2,7.072287202E-1
2.744228029E0,-3.512472380E-3,2.306014486E-2,7.145590782E-1
2.746355581E0,-2.290742937E-3,2.794706449E-2,7.182242870E-1
2.748483185E0,-2.290742937E-3,2.916879393E-2,7.182242870E-1
2.750610737E0,-1.069013379E-3,2.550360374E-2,7.194460034E-1
2.752738289E0,-3.512472380E-3,2.550360374E-2,7.182242870E-1
2.754865841E0,-1.069013379E-3,2.672533318E-2,7.157807946E-1
2.756993446E0,-1.069013379E-3,2.550360374E-2,7.121156454E-1
2.759120998E0,-3.512472380E-3,2.672533318E-2,7.084504366E-1
2.761248550E0,-2.290742937E-3,2.672533318E-2,7.035635114E-1
2.763376102E0,-4.734201822E-3,2.550360374E-2,6.962331533E-1
2.765503654E0,1.527161949E-4,2.550360374E-2,6.901245117E-1
2.767631258E0,-2.290742937E-3,2.794706449E-2,6.852375865E-1
2.769758810E0,-1.069013379E-3,2.306014486E-2,6.803506613E-1
2.771886362E0,-2.290742937E-3,2.306014486E-2,6.742420197E-1
2.774013914E0,-3.512472380E-3,2.428187430E-2,6.730202436E-1
2.776141466E0,-4.734201822E-3,2.306014486E-2,6.693550944E-1
2.778269071E0,-2.290742937E-3,2.550360374E-2,6.620246768E-1
2.780396623E0,-1.069013379E-3,2.061668597E-2,6.559160352E-1
2.782524175E0,-1.069013379E-3,2.550360374E-2,6.498073936E-1
2.784651727E0,-2.290742937E-3,2.183841541E-2,6.449204683E-1
2.786779331E0,-1.069013379E-3,2.306014486E-2,6.449204683E-1
2.788906883E0,-1.069013379E-3,2.061668597E-2,6.388118267E-1
2.791034435E0,-2.290742937E-3,2.183841541E-2,6.375901103E-1
2.793161987E0,-3.512472380E-3,2.183841541E-2,6.327031851E-1
2.795289539E0,-1.069013379E-3,2.428187430E-2,6.278162599E-1
2.797417143E0,-1.069013379E-3,1.817322709E-2,6.241511106E-1
2.799544696E0,1.527161949E-4,1.817322709E-2,6.204859018E-1
2.801672248E0,1.374445739E-3,1.939495653E-2,6.168206930E-1
2.803799800E0,-1.069013379E-3,1.939495653E-2,6.119337678E-1
2.805927352E0,1.527161949E-4,2.061668597E-2,6.070469022E-1
2.808054956E0,-2.290742937E-3,1.817322709E-2,6.009382010E-1
2.810182508E0,-1.069013379E-3,1.695149764E-2,5.960513353E-1
2.812310060E0,1.527161949E-4,1.572976820E-2,5.923861265E-1
2.814437612E0,-1.069013379E-3,2.306014486E-2,5.862774849E-1
2.816565164E0,1.374445739E-3,1.450803876E-2,5.826122761E-1
2.818692768E0,1.374445739E-3,1.695149764E-2,5.813905597E-1
2.820820321E0,1.527161949E-4,1.939495653E-2,5.813905597E-1
2.822947873E0,1.527161949E-4,1.572976820E-2,5.826122761E-1
2.825075425E0,-1.069013379E-3,1.939495653E-2,5.813905597E-1
2.827202977E0,1.527161949E-4,1.695149764E-2,5.850557685E-1
2.829330581E0,-2.290742937E-3,1.572976820E-2,5.887209177E-1
2.831458133E0,-1.069013379E-3,2.183841541E-2,5.936078429E-1
2.833585685E0,-1.069013379E-3,2.061668597E-2,5.984947681E-1
2.835713237E0,-2.290742937E-3,1.939495653E-2,6.046034098E-1
2.837840789E0,-1.069013379E-3,2.183841541E-2,6.131555438E-1
2.839968393E0,-1.069013379E-3,1.939495653E-2,6.217076182E-1
2.842095946E0,1.527161949E-4,1.939495653E-2,6.339249015E-1
2.844223498E0,-2.290742937E-3,2.061668597E-2,6.424770355E-1
2.846351050E0,-3.512472380E-3,2.306014486E-2,6.498073936E-1
2.848478602E0,-2.290742937E-3,2.306014486E-2,6.571378112E-1
2.850606206E0,-2.290742937E-3,1.695149764E-2,6.632464528E-1
2.852733758E0,-1.069013379E-3,2.550360374E-2,6.705768108E-1
2.854861310E0,-2.290742937E-3,2.550360374E-2,6.742420197E-1
2.856988862E0,-2.290742937E-3,2.428187430E-2,6.754637361E-1
2.859116466E0,-3.512472380E-3,2.183841541E-2,6.766854525E-1
2.861244018E0,1.527161949E-4,2.306014486E-2,6.766854525E-1
2.863371571E0,-3.512472380E-3,2.306014486E-2,6.730202436E-1
2.865499123E0,-3.512472380E-3,2.306014486E-2,6.705768108E-1
2.867626675E0,-1.069013379E-3,2.306014486E-2,6.681333780E-1
2.869754279E0,-2.290742937E-3,2.061668597E-2,6.620246768E-1
2.871881831E0,-1.069013379E-3,2.183841541E-2,6.583595276E-1
2.874009383E0,-1.069013379E-3,2.061668597E-2,6.522508860E-1
2.876136935E0,-2.290742937E-3,2.183841541E-2,6.461422443E-1
2.878264487E0,-1.069013379E-3,2.183841541E-2,6.400335431E-1
2.880392091E0,-2.290742937E-3,2.183841541E-2,6.339249015E-1
2.882519643E0,-2.290742937E-3,1.817322709E-2,6.241511106E-1
2.884647196E0,-1.069013379E-3,1.817322709E-2,6.180424690E-1
2.886774748E0,-1.069013379E-3,2.183841541E-2,6.119337678E-1
2.888902352E0,-2.290742937E-3,2.061668597E-2,6.058251262E-1
2.891029904E0,-2.290742937E-3,1.695149764E-2,5.997164845E-1
2.893157456E0,-2.290742937E-3,1.939495653E-2,5.936078429E-1
2.895285008E0,-1.069013379E-3,2.061668597E-2,5.874992013E-1
2.897412560E0,-1.069013379E-3,1.695149764E-2,5.801688433E-1
2.899540164E0,-1.069013379E-3,1.817322709E-2,5.716167092E-1
2.901667716E0,-2.290742937E-3,1.328630932E-2,5.655080676E-1
2.903795268E0,1.527161949E-4,1.695149764E-2,5.606211424E-1
2.905922821E0,-1.069013379E-3,1.817322709E-2,5.593994260E-1
2.908050373E0,1.527161949E-4,1.206457894E-2,5.545125008E-1
2.910177977E0,-1.069013379E-3,1.206457894E-2,5.484038591E-1
2.912305529E0,-2.290742937E-3,2.061668597E-2,5.422952175E-1
2.914433081E0,1.374445739E-3,1.084284950E-2,5.398517251E-1
2.916560633E0,1.527161949E-4,1.572976820E-2,5.398517251E-1
2.918688185E0,-2.290742937E-3,2.183841541E-2,5.361865759E-1
2.920815789E0,-1.069013379E-3,1.817322709E-2,5.337430835E-1
2.922943341E0,-2.290742937E-3,1.328630932E-2,5.325213671E-1
2.925070893E0,1.374445739E-3,1.572976820E-2,5.349648595E-1
2.927198446E0,-3.512472380E-3,1.939495653E-2,5.422952175E-1
2.929325998E0,1.527161949E-4,1.695149764E-2,5.508472919E-1
2.931453602E0,-2.290742937E-3,1.817322709E-2,5.593994260E-1
2.933581154E0,1.527161949E-4,1.817322709E-2,5.691732764E-1
2.935708706E0,-2.290742937E-3,1.817322709E-2,5.752819180E-1
2.937836258E0,-1.069013379E-3,1.817322709E-2,5.862774849E-1
2.939963810E0,-2.290742937E-3,1.939495653E-2,5.948295593E-1
2.942091414E0,-2.290742937E-3,2.061668597E-2,6.082686186E-1
2.944218966E0,-2.290742937E-3,2.306014486E-2,6.217076182E-1
2.946346518E0,-1.069013379E-3,2.183841541E-2,6.351466775E-1
2.948474071E0,-2.290742937E-3,2.183841541E-2,6.449204683E-1
2.950601675E0,-1.069013379E-3,2.550360374E-2,6.534726024E-1
2.952729227E0,-1.069013379E-3,2.183841541E-2,6.632464528E-1
2.954856779E0,-1.069013379E-3,2.672533318E-2,6.717985272E-1
2.956984331E0,-1.069013379E-3,2.672533318E-2,6.791289449E-1
2.959111935E0,-2.290742937E-3,2.550360374E-2,6.852375865E-1
2.961239487E0,-2.290742937E-3,2.428187430E-2,6.913462281E-1
2.963367039E0,-2.290742937E-3,2.672533318E-2,6.974548697E-1
2.965494591E0,-2.290742937E-3,2.916879393E-2,7.023417950E-1
2.967622143E0,-4.734201822E-3,2.672533318E-2,7.072287202E-1
2.969749696E0,-4.734201822E-3,2.916879393E-2,7.145590782E-1
2.971877300E0,-2.290742937E-3,2.672533318E-2,7.170025110E-1
2.974004852E0,-1.069013379E-3,2.428187430E-2,7.218894362E-1
2.976132404E0,-2.290742937E-3,2.306014486E-2,7.206677198E-1
2.978259956E0,-3.512472380E-3,2.794706449E-2,7.194460034E-1
2.980387508E0,-4.734201822E-3,2.306014486E-2,7.170025110E-1
2.982515112E0,-3.512472380E-3,2.672533318E-2,7.157807946E-1
2.984642664E0,-3.512472380E-3,3.039052337E-2,7.133373618E-1
2.986770216E0,-2.290742937E-3,2.306014486E-2,7.133373618E-1
2.988897768E0,-2.290742937E-3,2.550360374E-2,7.121156454E-1
2.991025321E0,-2.290742937E-3,2.550360374E-2,7.108938694E-1
2.993152925E0,-3.512472380E-3,2.428187430E-2,7.084504366E-1
2.995280477E0,-4.734201822E-3,2.306014486E-2,7.047852278E-1
2.997408029E0,-1.069013379E-3,2.428187430E-2,7.035635114E-1
2.999535581E0,-3.512472380E-3,2.183841541E-2,6.962331533E-1
3.001663133E0,-3.512472380E-3,2.550360374E-2,6.937896609E-1
3.003790737E0,-3.512472380E-3,2.306014486E-2,6.876810193E-1
3.005918289E0,-4.734201822E-3,2.428187430E-2,6.815723777E-1
3.008045841E0,-3.512472380E-3,2.306014486E-2,6.779071689E-1
3.010173446E0,-1.069013379E-3,2.183841541E-2,6.693550944E-1
3.012300998E0,-1.069013379E-3,2.183841541E-2,6.608029604E-1
3.014428550E0,-1.069013379E-3,2.183841541E-2,6.485856771E-1
3.016556102E0,-2.290742937E-3,2.183841541E-2,6.388118267E-1
3.018683654E0,-2.290742937E-3,2.306014486E-2,6.290380359E-1
3.020811206E0,-2.290742937E-3,2.183841541E-2,6.168206930E-1
3.022938810E0,-3.512472380E-3,1.939495653E-2,6.021599770E-1
3.025066362E0,-3.512472380E-3,2.061668597E-2,5.911644101E-1
3.027193914E0,-2.290742937E-3,2.061668597E-2,5.801688433E-1
3.029321466E0,-1.069013379E-3,1.939495653E-2,5.679515004E-1
3.031449018E0,-1.069013379E-3,2.061668597E-2,5.557342172E-1
3.033576623E0,-2.290742937E-3,2.061668597E-2,5.435169339E-1
3.035704175E0,-1.069013379E-3,1.817322709E-2,5.337430835E-1
3.037831727E0,1.527161949E-4,1.939495653E-2,5.251910090E-1
3.039959279E0,-3.512472380E-3,1.817322709E-2,5.178605914E-1
3.042086831E0,-1.069013379E-3,1.817322709E-2,5.141954422E-1
3.044214435E0,1.527161949E-4,1.939495653E-2,5.117519498E-1
3.046341987E0,-1.069013379E-3,1.572976820E-2,5.129737258E-1
3.048469539E0,-2.290742937E-3,1.572976820E-2,5.166388750E-1
3.050597091E0,-1.069013379E-3,1.817322709E-2,5.239692926E-1
3.052724643E0,-2.290742937E-3,1.450803876E-2,5.337430835E-1
3.054852248E0,-1.069013379E-3,1.817322709E-2,5.484038591E-1
3.056979800E0,1.527161949E-4,1.939495653E-2,5.618428588E-1
3.059107352E0,-2.290742937E-3,1.572976820E-2,5.752819180E-1
3.061234904E0,-3.512472380E-3,1.572976820E-2,5.899426341E-1
3.063362508E0,-1.069013379E-3,2.428187430E-2,6.046034098E-1
3.065490060E0,-1.069013379E-3,1.939495653E-2,6.155989766E-1
3.067617612E0,-2.290742937E-3,2.061668597E-2,6.253728271E-1
3.069745164E0,-2.290742937E-3,2.061668597E-2,6.351466775E-1
3.071872716E0,-1.069013379E-3,1.817322709E-2,6.485856771E-1
3.074000321E0,-3.512472380E-3,2.183841541E-2,6.583595276E-1
3.076127873E0,-2.290742937E-3,2.183841541E-2,6.669116020E-1
3.078255425E0,1.527161949E-4,2.183841541E-2,6.766854525E-1
3.080382977E0,-1.069013379E-3,2.183841541E-2,6.852375865E-1
3.082510529E0,-3.512472380E-3,2.306014486E-2,6.974548697E-1
3.084638081E0,-1.069013379E-3,2.428187430E-2,7.060069442E-1
3.086765685E0,-1.069013379E-3,2.306014486E-2,7.170025110E-1
3.088893237E0,-2.290742937E-3,2.428187430E-2,7.255546451E-1
3.091020789E0,-1.069013379E-3,2.794706449E-2,7.341067195E-1
3.093147977E0,-3.512472380E-3,2.306014486E-2,7.426588535E-1
3.095275946E0,-1.069013379E-3,2.794706449E-2,7.512109876E-1
3.097403498E0,-1.069013379E-3,2.550360374E-2,7.585413456E-1
3.099530685E0,-2.290742937E-3,2.672533318E-2,7.634282708E-1
3.101658602E0,-2.290742937E-3,2.428187430E-2,7.670934200E-1
3.103786154E0,-1.069013379E-3,2.916879393E-2,7.707586288E-1
3.105913758E0,-3.512472380E-3,2.428187430E-2,7.719803452E-1
3.108041310E0,-1.069013379E-3,2.794706449E-2,7.707586288E-1
3.110168862E0,-2.290742937E-3,2.550360374E-2,7.695369124E-1
3.112296414E0,-3.512472380E-3,2.550360374E-2,7.719803452E-1
3.114423966E0,-1.069013379E-3,2.794706449E-2,7.719803452E-1
3.116551571E0,-2.290742937E-3,2.672533318E-2,7.719803452E-1
3.118679123E0,-3.512472380E-3,2.183841541E-2,7.707586288E-1
3.120806675E0,-2.290742937E-3,2.794706449E-2,7.732021213E-1
3.122934227E0,-3.512472380E-3,2.672533318E-2,7.744238377E-1
3.125061779E0,-1.069013379E-3,2.672533318E-2,7.744238377E-1
3.127189383E0,-2.290742937E-3,2.794706449E-2,7.732021213E-1
3.129316935E0,-3.512472380E-3,2.183841541E-2,7.756455541E-1
3.131444487E0,-2.290742937E-3,2.672533318E-2,7.793107629E-1
3.133572039E0,-2.290742937E-3,3.039052337E-2,7.805324793E-1
3.135699643E0,-1.069013379E-3,2.428187430E-2,7.817541957E-1
3.137827196E0,-3.512472380E-3,2.672533318E-2,7.829759121E-1
3.139954748E0,-2.290742937E-3,2.794706449E-2,7.841976881E-1
3.142082300E0,-2.290742937E-3,2.672533318E-2,7.878628373E-1
3.144209852E0,-2.290742937E-3,2.428187430E-2,7.903063297E-1
3.146337456E0,-1.069013379E-3,2.794706449E-2,7.939714789E-1
3.148465008E0,-2.290742937E-3,2.672533318E-2,7.976366878E-1
3.150592560E0,-2.290742937E-3,2.794706449E-2,7.951932549E-1
3.152720112E0,-3.512472380E-3,2.550360374E-2,7.964149714E-1
3.154847664E0,-2.290742937E-3,2.794706449E-2,7.964149714E-1
3.156975268E0,-2.290742937E-3,2.428187430E-2,7.951932549E-1
3.159102821E0,1.527161949E-4,2.550360374E-2,7.927497625E-1
3.161230373E0,-2.290742937E-3,2.794706449E-2,7.866411209E-1
3.163357925E0,-1.069013379E-3,2.550360374E-2,7.793107629E-1
3.165485529E0,-2.290742937E-3,2.672533318E-2,7.732021213E-1
3.167613081E0,-4.734201822E-3,2.550360374E-2,7.695369124E-1
3.169740633E0,-1.069013379E-3,2.183841541E-2,7.695369124E-1
3.171868185E0,1.527161949E-4,2.916879393E-2,7.695369124E-1
3.173995737E0,-2.290742937E-3,2.672533318E-2,7.683151960E-1
3.176123289E0,-2.290742937E-3,2.428187430E-2,7.634282708E-1
3.178250893E0,-2.290742937E-3,2.672533318E-2,7.573196292E-1
3.180378446E0,-2.290742937E-3,2.550360374E-2,7.512109876E-1
3.182505998E0,1.527161949E-4,2.550360374E-2,7.475457788E-1
3.184633550E0,-1.069013379E-3,2.794706449E-2,7.438805699E-1
3.186761102E0,-1.069013379E-3,3.039052337E-2,7.389936447E-1
3.188888706E0,-3.512472380E-3,2.428187430E-2,7.365502119E-1
3.191016258E0,-3.512472380E-3,2.794706449E-2,7.365502119E-1
3.193143810E0,1.527161949E-4,2.550360374E-2,7.328850031E-1
3.195271362E0,-2.290742937E-3,2.306014486E-2,7.316632867E-1
3.197398914E0,-1.069013379E-3,2.672533318E-2,7.243329287E-1
3.199526518E0,-1.069013379E-3,2.672533318E-2,7.194460034E-1
3.201654071E0,-2.290742937E-3,2.306014486E-2,7.108938694E-1
3.203781623E0,-1.069013379E-3,2.550360374E-2,7.011200786E-1
3.205909175E0,-1.069013379E-3,2.794706449E-2,6.962331533E-1
3.208036779E0,1.527161949E-4,2.428187430E-2,6.913462281E-1
3.210164331E0,1.527161949E-4,2.550360374E-2,6.852375865E-1
3.212291883E0,-2.290742937E-3,2.306014486E-2,6.766854525E-1
3.214419435E0,-2.290742937E-3,2.428187430E-2,6.717985272E-1
3.216546987E0,-1.069013379E-3,2.794706449E-2,6.681333780E-1
3.218674591E0,-2.290742937E-3,2.306014486E-2,6.669116020E-1
3.220802143E0,-2.290742937E-3,2.306014486E-2,6.644681692E-1
3.222929696E0,1.527161949E-4,2.794706449E-2,6.595812440E-1
3.225057248E0,-2.290742937E-3,2.306014486E-2,6.546943188E-1
3.227184800E0,-2.290742937E-3,1.695149764E-2,6.559160352E-1
3.229312404E0,-1.069013379E-3,2.306014486E-2,6.595812440E-1
3.231439956E0,-1.069013379E-3,2.428187430E-2,6.632464528E-1
3.233567508E0,-1.069013379E-3,2.306014486E-2,6.669116020E-1
3.235695060E0,-2.290742937E-3,2.061668597E-2,6.717985272E-1
3.237822612E0,1.527161949E-4,1.939495653E-2,6.815723777E-1
3.239950216E0,1.527161949E-4,2.550360374E-2,6.925679445E-1
3.242077768E0,-1.069013379E-3,2.550360374E-2,6.998983026E-1
3.244205321E0,-1.069013379E-3,2.550360374E-2,7.072287202E-1
3.246332873E0,-2.290742937E-3,2.428187430E-2,7.157807946E-1
3.248460425E0,-2.290742937E-3,2.550360374E-2,7.243329287E-1
3.250588029E0,-2.290742937E-3,2.550360374E-2,7.328850031E-1
3.252715581E0,-2.290742937E-3,2.672533318E-2,7.402154207E-1
3.254843133E0,1.527161949E-4,2.550360374E-2,7.463240623E-1
3.256970685E0,-3.512472380E-3,2.306014486E-2,7.524327040E-1
3.259098237E0,-1.069013379E-3,2.672533318E-2,7.585413456E-1
3.261225841E0,-1.069013379E-3,3.039052337E-2,7.622065544E-1
3.263353393E0,-1.069013379E-3,3.161225095E-2,7.634282708E-1
3.265480946E0,-1.069013379E-3,2.794706449E-2,7.597630620E-1
3.267608498E0,-4.734201822E-3,1.572976820E-2,7.609847784E-1
3.269736050E0,-2.290742937E-3,2.794706449E-2,7.634282708E-1
3.271863654E0,1.527161949E-4,3.039052337E-2,7.646499872E-1
3.273991206E0,-3.512472380E-3,2.550360374E-2,7.609847784E-1
3.276118758E0,-2.290742937E-3,2.672533318E-2,7.560978532E-1
3.278246310E0,-2.290742937E-3,2.672533318E-2,7.512109876E-1
3.280373862E0,-2.290742937E-3,2.183841541E-2,7.499892116E-1
3.282501466E0,-2.290742937E-3,3.161225095E-2,7.438805699E-1
3.284629018E0,-3.512472380E-3,2.550360374E-2,7.389936447E-1
3.286756571E0,-2.290742937E-3,2.428187430E-2,7.328850031E-1
3.288884123E0,1.374445739E-3,2.183841541E-2,7.267763615E-1
3.291011727E0,-2.290742937E-3,2.306014486E-2,7.231112123E-1
3.293139279E0,-1.069013379E-3,2.550360374E-2,7.170025110E-1
3.295266831E0,-2.290742937E-3,2.061668597E-2,7.133373618E-1
3.297394383E0,-1.069013379E-3,2.306014486E-2,7.060069442E-1
3.299521935E0,1.527161949E-4,2.794706449E-2,7.023417950E-1
3.301649539E0,-1.069013379E-3,2.306014486E-2,6.974548697E-1
3.303777091E0,-2.290742937E-3,2.306014486E-2,6.925679445E-1
3.305904643E0,-2.290742937E-3,2.428187430E-2,6.889027357E-1
3.308032196E0,-1.069013379E-3,2.428187430E-2,6.864593029E-1
3.310159748E0,-2.290742937E-3,2.550360374E-2,6.815723777E-1
3.312287352E0,-1.069013379E-3,2.550360374E-2,6.766854525E-1
3.314414904E0,-2.290742937E-3,2.061668597E-2,6.754637361E-1
3.316542456E0,-1.069013379E-3,2.428187430E-2,6.754637361E-1
3.318670008E0,1.527161949E-4,2.183841541E-2,6.766854525E-1
3.320797560E0,-2.290742937E-3,2.428187430E-2,6.779071689E-1
3.322925164E0,-1.069013379E-3,2.183841541E-2,6.803506613E-1
3.325052716E0,-3.512472380E-3,2.183841541E-2,6.827940941E-1
3.327180268E0,-3.512472380E-3,2.183841541E-2,6.864593029E-1
3.329307821E0,-2.290742937E-3,2.183841541E-2,6.937896609E-1
3.331435373E0,-3.512472380E-3,2.428187430E-2,6.986765862E-1
3.333562925E0,-3.512472380E-3,2.183841541E-2,7.023417950E-1
3.335690529E0,-2.290742937E-3,2.428187430E-2,7.060069442E-1
3.337818081E0,-3.512472380E-3,2.183841541E-2,7.121156454E-1
3.339945633E0,-3.512472380E-3,2.061668597E-2,7.157807946E-1
3.342073237E0,-2.290742937E-3,2.428187430E-2,7.218894362E-1
3.344200789E0,-1.069013379E-3,2.550360374E-2,7.243329287E-1
3.346328341E0,-2.290742937E-3,2.061668597E-2,7.255546451E-1
3.348455893E0,-3.512472380E-3,2.672533318E-2,7.255546451E-1
3.350583446E0,-1.069013379E-3,2.428187430E-2,7.267763615E-1
3.352710998E0,-3.512472380E-3,2.306014486E-2,7.279980779E-1
3.354838602E0,-1.069013379E-3,2.672533318E-2,7.279980779E-1
3.356966154E0,-1.069013379E-3,2.306014486E-2,7.231112123E-1
3.359093706E0,1.527161949E-4,2.183841541E-2,7.194460034E-1
3.361221258E0,-2.290742937E-3,2.061668597E-2,7.170025110E-1
3.363348810E0,-3.512472380E-3,2.428187430E-2,7.121156454E-1
3.365476414E0,-1.069013379E-3,2.550360374E-2,7.060069442E-1
3.367603966E0,-4.734201822E-3,2.183841541E-2,7.023417950E-1
3.369731518E0,-3.512472380E-3,2.306014486E-2,6.986765862E-1
3.371859071E0,-1.069013379E-3,2.183841541E-2,6.962331533E-1
3.373986623E0,-2.290742937E-3,2.428187430E-2,6.901245117E-1
3.376114227E0,-2.290742937E-3,2.183841541E-2,6.864593029E-1
3.378241779E0,-1.069013379E-3,2.061668597E-2,6.803506613E-1
3.380369331E0,-3.512472380E-3,2.428187430E-2,6.754637361E-1
3.382496883E0,-1.069013379E-3,2.183841541E-2,6.681333780E-1
3.384624435E0,-2.290742937E-3,2.183841541E-2,6.595812440E-1
3.386752039E0,-2.290742937E-3,2.550360374E-2,6.510291100E-1
3.388879591E0,-2.290742937E-3,1.817322709E-2,6.424770355E-1
3.391007143E0,-3.512472380E-3,1.695149764E-2,6.339249015E-1
3.393134696E0,-3.512472380E-3,2.428187430E-2,6.290380359E-1
3.395262300E0,-2.290742937E-3,1.939495653E-2,6.241511106E-1
3.397389852E0,-2.290742937E-3,1.939495653E-2,6.180424690E-1
3.399517404E0,-2.290742937E-3,1.817322709E-2,6.131555438E-1
3.401644956E0,-2.290742937E-3,1.939495653E-2,6.119337678E-1
3.403772508E0,1.527161949E-4,2.061668597E-2,6.107120514E-1
3.405900112E0,-1.069013379E-3,1.939495653E-2,6.107120514E-1
3.408027664E0,-1.069013379E-3,1.939495653E-2,6.094903350E-1
3.410155216E0,-1.069013379E-3,1.572976820E-2,6.094903350E-1
3.412282768E0,-1.069013379E-3,1.939495653E-2,6.082686186E-1
3.414410321E0,1.527161949E-4,2.183841541E-2,6.058251262E-1
3.416537925E0,-1.069013379E-3,2.061668597E-2,6.058251262E-1
3.418665477E0,-1.069013379E-3,1.817322709E-2,6.046034098E-1
3.420793029E0,1.374445739E-3,2.061668597E-2,6.046034098E-1
3.422920581E0,-1.069013379E-3,2.061668597E-2,6.046034098E-1
3.425048133E0,-1.069013379E-3,2.183841541E-2,6.046034098E-1
3.427175737E0,-2.290742937E-3,1.695149764E-2,6.070469022E-1
3.429303289E0,1.374445739E-3,1.939495653E-2,6.070469022E-1
3.431430841E0,-2.290742937E-3,2.183841541E-2,6.107120514E-1
3.433558393E0,-2.290742937E-3,2.061668597E-2,6.107120514E-1
3.435685946E0,-1.069013379E-3,2.183841541E-2,6.107120514E-1
3.437813550E0,1.527161949E-4,2.061668597E-2,6.131555438E-1
3.439941102E0,1.527161949E-4,1.939495653E-2,6.143772602E-1
3.442068654E0,-1.069013379E-3,1.939495653E-2,6.204859018E-1
3.444196206E0,1.527161949E-4,2.550360374E-2,6.241511106E-1
3.446323758E0,-1.069013379E-3,1.939495653E-2,6.278162599E-1
3.448451362E0,-3.512472380E-3,2.061668597E-2,6.339249015E-1
3.450578914E0,1.527161949E-4,2.306014486E-2,6.351466775E-1
3.452706466E0,-1.069013379E-3,1.695149764E-2,6.375901103E-1
3.454834018E0,-1.069013379E-3,2.061668597E-2,6.436987519E-1
3.456961571E0,1.527161949E-4,2.428187430E-2,6.498073936E-1
3.459089175E0,-3.512472380E-3,1.939495653E-2,6.571378112E-1
3.461216727E0,-1.069013379E-3,2.550360374E-2,6.620246768E-1
3.463344279E0,-2.290742937E-3,2.061668597E-2,6.705768108E-1
3.465471831E0,-3.512472380E-3,1.939495653E-2,6.779071689E-1
3.467599435E0,-2.290742937E-3,2.672533318E-2,6.852375865E-1
3.469726987E0,-1.069013379E-3,2.428187430E-2,6.925679445E-1
3.471854539E0,-4.734201822E-3,2.550360374E-2,6.974548697E-1
3.473982091E0,-2.290742937E-3,2.672533318E-2,7.011200786E-1
3.476109643E0,-3.512472380E-3,2.672533318E-2,6.998983026E-1
3.478237248E0,-3.512472380E-3,2.306014486E-2,7.011200786E-1
3.480364800E0,-2.290742937E-3,2.794706449E-2,6.986765862E-1
3.482492352E0,-3.512472380E-3,2.183841541E-2,6.937896609E-1
3.484619904E0,-3.512472380E-3,2.550360374E-2,6.889027357E-1
3.486747456E0,-2.290742937E-3,2.672533318E-2,6.827940941E-1
3.488875008E0,-1.069013379E-3,2.428187430E-2,6.754637361E-1
3.491002612E0,-3.512472380E-3,2.550360374E-2,6.669116020E-1
3.493130164E0,-1.069013379E-3,2.183841541E-2,6.583595276E-1
3.495257716E0,-3.512472380E-3,2.306014486E-2,6.498073936E-1
3.497385268E0,-3.512472380E-3,2.428187430E-2,6.424770355E-1
3.499512873E0,-2.290742937E-3,2.183841541E-2,6.339249015E-1
3.501640425E0,-3.512472380E-3,2.428187430E-2,6.278162599E-1
3.503767977E0,-2.290742937E-3,2.428187430E-2,6.192641854E-1
3.505895529E0,-3.512472380E-3,1.939495653E-2,6.131555438E-1
3.508023133E0,-3.512472380E-3,2.183841541E-2,6.046034098E-1
3.510150685E0,-2.290742937E-3,2.306014486E-2,5.960513353E-1
3.512278237E0,-3.512472380E-3,2.306014486E-2,5.887209177E-1
3.514405789E0,-1.069013379E-3,2.061668597E-2,5.777253509E-1
3.516533341E0,1.527161949E-4,1.939495653E-2,5.716167092E-1
3.518660893E0,-3.512472380E-3,1.939495653E-2,5.630646348E-1
3.520788498E0,-3.512472380E-3,1.939495653E-2,5.532907844E-1
3.522916050E0,-3.512472380E-3,1.939495653E-2,5.471821427E-1
3.525043602E0,-1.069013379E-3,2.183841541E-2,5.398517251E-1
3.527171154E0,-1.069013379E-3,2.061668597E-2,5.361865759E-1
3.529298706E0,-2.290742937E-3,1.817322709E-2,5.325213671E-1
3.531426310E0,-2.290742937E-3,1.939495653E-2,5.276344419E-1
3.533553862E0,-2.290742937E-3,1.817322709E-2,5.239692926E-1
3.535681414E0,-1.069013379E-3,1.939495653E-2,5.178605914E-1
3.537808966E0,-1.069013379E-3,2.061668597E-2,5.141954422E-1
3.539936518E0,-2.290742937E-3,1.695149764E-2,5.105302334E-1
3.542064123E0,-1.069013379E-3,1.817322709E-2,5.093085170E-1
3.544191675E0,-1.069013379E-3,1.695149764E-2,5.080868006E-1
3.546319227E0,-3.512472380E-3,1.939495653E-2,5.093085170E-1
3.548446779E0,-1.069013379E-3,2.061668597E-2,5.105302334E-1
3.550574331E0,-3.512472380E-3,1.817322709E-2,5.117519498E-1
3.552701935E0,-3.512472380E-3,1.817322709E-2,5.141954422E-1
3.554829487E0,-3.512472380E-3,1.939495653E-2,5.166388750E-1
3.556957039E0,1.527161949E-4,1.817322709E-2,5.178605914E-1
3.559084591E0,-2.290742937E-3,1.695149764E-2,5.215258002E-1
3.561212143E0,-2.290742937E-3,1.939495653E-2,5.251910090E-1
3.563339748E0,-1.069013379E-3,1.939495653E-2,5.276344419E-1
3.565467300E0,-2.290742937E-3,1.939495653E-2,5.276344419E-1
3.567594852E0,1.527161949E-4,2.061668597E-2,5.300779343E-1
3.569722404E0,-3.512472380E-3,1.695149764E-2,5.288561583E-1
3.571849956E0,-3.512472380E-3,1.939495653E-2,5.276344419E-1
3.573977560E0,-3.512472380E-3,1.939495653E-2,5.251910090E-1
3.576105112E0,-3.512472380E-3,1.817322709E-2,5.215258002E-1
3.578232664E0,-3.512472380E-3,1.817322709E-2,5.178605914E-1
3.580360216E0,-2.290742937E-3,1.695149764E-2,5.105302334E-1
3.582487768E0,-2.290742937E-3,1.817322709E-2,5.056433082E-1
3.584615373E0,-1.069013379E-3,1.695149764E-2,4.995346665E-1
3.586742925E0,-2.290742937E-3,1.817322709E-2,4.922043085E-1
3.588870477E0,-2.290742937E-3,1.572976820E-2,4.885390997E-1
3.590998029E0,-2.290742937E-3,1.450803876E-2,4.848739207E-1
3.593125633E0,-2.290742937E-3,1.817322709E-2,4.824304581E-1
3.595253185E0,-3.512472380E-3,1.695149764E-2,4.787652791E-1
3.597380737E0,-3.512472380E-3,1.572976820E-2,4.775435328E-1
3.599508289E0,-2.290742937E-3,1.939495653E-2,4.763218164E-1
3.601635841E0,-2.290742937E-3,1.817322709E-2,4.726566374E-1
3.603763446E0,-3.512472380E-3,2.061668597E-2,4.702131748E-1
3.605890998E0,-1.069013379E-3,1.817322709E-2,4.689914286E-1
3.608018550E0,-1.069013379E-3,1.939495653E-2,4.702131748E-1
3.610146102E0,-2.290742937E-3,1.572976820E-2,4.689914286E-1
3.612273654E0,-2.290742937E-3,1.572976820E-2,4.665479660E-1
3.614401258E0,-2.290742937E-3,1.695149764E-2,4.653262496E-1
3.616528810E0,-2.290742937E-3,1.572976820E-2,4.628827870E-1
3.618656362E0,-2.290742937E-3,1.572976820E-2,4.628827870E-1
3.620783914E0,-1.069013379E-3,1.817322709E-2,4.653262496E-1
3.622911466E0,-1.069013379E-3,1.572976820E-2,4.653262496E-1
3.625039018E0,-2.290742937E-3,1.695149764E-2,4.677697122E-1
3.627166623E0,-1.069013379E-3,1.695149764E-2,4.677697122E-1
3.629294175E0,-1.069013379E-3,1.450803876E-2,4.677697122E-1
3.631421727E0,-2.290742937E-3,1.817322709E-2,4.689914286E-1
3.633549279E0,1.527161949E-4,1.695149764E-2,4.702131748E-1
3.635676831E0,-2.290742937E-3,1.572976820E-2,4.738783538E-1
3.637804435E0,-1.069013379E-3,1.695149764E-2,4.726566374E-1
3.639931987E0,-2.290742937E-3,1.572976820E-2,4.738783538E-1
3.642059539E0,-1.069013379E-3,1.695149764E-2,4.751000702E-1
3.644187091E0,-1.069013379E-3,1.695149764E-2,4.751000702E-1
3.646314696E0,-2.290742937E-3,1.695149764E-2,4.738783538E-1
3.648442248E0,-1.069013379E-3,1.939495653E-2,4.751000702E-1
3.650569800E0,-3.512472380E-3,2.061668597E-2,4.738783538E-1
3.652697352E0,-2.290742937E-3,1.450803876E-2,4.726566374E-1
3.654824904E0,-3.512472380E-3,1.817322709E-2,4.714348912E-1
3.656952456E0,1.527161949E-4,1.939495653E-2,4.702131748E-1
3.659080060E0,-1.069013379E-3,1.695149764E-2,4.702131748E-1
3.661207612E0,-1.069013379E-3,1.572976820E-2,4.677697122E-1
3.663335164E0,-1.069013379E-3,1.695149764E-2,4.665479660E-1
3.665462716E0,-2.290742937E-3,1.695149764E-2,4.653262496E-1
3.667590268E0,-1.069013379E-3,1.206457894E-2,4.628827870E-1
3.669717873E0,-1.069013379E-3,1.572976820E-2,4.616610706E-1
3.671845425E0,1.527161949E-4,1.572976820E-2,4.592176080E-1
3.673972977E0,-1.069013379E-3,1.450803876E-2,4.555523992E-1
3.676100529E0,-1.069013379E-3,1.695149764E-2,4.518872201E-1
3.678228081E0,-1.069013379E-3,1.206457894E-2,4.506655037E-1
3.680355685E0,-1.069013379E-3,1.328630932E-2,4.482220411E-1
3.682483237E0,-3.512472380E-3,1.450803876E-2,4.457785785E-1
3.684610789E0,1.527161949E-4,1.695149764E-2,4.457785785E-1
3.686738341E0,1.527161949E-4,1.450803876E-2,4.470002949E-1
3.688865946E0,-3.512472380E-3,1.206457894E-2,4.482220411E-1
3.690993498E0,-1.069013379E-3,1.450803876E-2,4.506655037E-1
3.693121050E0,1.374445739E-3,1.450803876E-2,4.506655037E-1
3.695248602E0,-2.290742937E-3,1.572976820E-2,4.531089365E-1
3.697376154E0,-1.069013379E-3,1.328630932E-2,4.567741454E-1
3.699503706E0,-2.290742937E-3,1.450803876E-2,4.592176080E-1
3.701631310E0,-1.069013379E-3,1.695149764E-2,4.604393244E-1
3.703758862E0,-2.290742937E-3,1.206457894E-2,4.628827870E-1
3.705886414E0,-1.069013379E-3,1.328630932E-2,4.641045034E-1
3.708013966E0,-1.069013379E-3,1.572976820E-2,4.665479660E-1
3.710141571E0,1.527161949E-4,1.572976820E-2,4.689914286E-1
3.712269123E0,-1.069013379E-3,1.572976820E-2,4.714348912E-1
3.714396675E0,-2.290742937E-3,1.328630932E-2,4.738783538E-1
3.716524227E0,-1.069013379E-3,1.572976820E-2,4.775435328E-1
3.718651779E0,-1.069013379E-3,1.939495653E-2,4.787652791E-1
3.720779383E0,-2.290742937E-3,1.450803876E-2,4.812087417E-1
3.722906935E0,1.527161949E-4,1.450803876E-2,4.848739207E-1
3.725034487E0,1.527161949E-4,1.817322709E-2,4.873173833E-1
3.727162039E0,-1.069013379E-3,1.572976820E-2,4.873173833E-1
3.729289591E0,1.374445739E-3,1.572976820E-2,4.909825623E-1
3.731417196E0,-1.069013379E-3,1.572976820E-2,4.922043085E-1
3.733544748E0,-3.512472380E-3,1.572976820E-2,4.958694875E-1
3.735672300E0,-1.069013379E-3,1.817322709E-2,4.970912039E-1
3.737799852E0,-1.069013379E-3,1.695149764E-2,4.995346665E-1
3.739927404E0,-3.512472380E-3,1.328630932E-2,5.019781590E-1
3.742054956E0,1.527161949E-4,1.695149764E-2,5.019781590E-1
3.744182560E0,-1.069013379E-3,2.672533318E-2,4.958694875E-1
3.746310112E0,-2.290742937E-3,7.177661173E-3,4.934260249E-1
3.748437664E0,-2.290742937E-3,1.450803876E-2,4.934260249E-1
3.750565268E0,-1.069013379E-3,1.939495653E-2,4.958694875E-1
3.752692821E0,-2.290742937E-3,1.572976820E-2,4.970912039E-1
3.754820373E0,-4.734201822E-3,1.572976820E-2,4.946477413E-1
3.756947925E0,-1.069013379E-3,1.817322709E-2,4.946477413E-1
3.759075477E0,-2.290742937E-3,1.572976820E-2,4.909825623E-1
3.761203029E0,-1.069013379E-3,1.572976820E-2,4.934260249E-1
3.763330633E0,-1.069013379E-3,1.817322709E-2,4.934260249E-1
3.765458185E0,1.527161949E-4,1.572976820E-2,4.934260249E-1
3.767585737E0,-1.069013379E-3,1.572976820E-2,4.909825623E-1
3.769713289E0,-1.069013379E-3,1.328630932E-2,4.909825623E-1
3.771840893E0,1.527161949E-4,1.206457894E-2,4.909825623E-1
3.773968446E0,-1.069013379E-3,1.328630932E-2,4.934260249E-1
3.776095998E0,-1.069013379E-3,1.572976820E-2,4.946477413E-1
3.778223550E0,-1.069013379E-3,1.572976820E-2,4.970912039E-1
3.780351102E0,1.374445739E-3,2.061668597E-2,4.958694875E-1
3.782478654E0,1.527161949E-4,1.939495653E-2,4.909825623E-1
3.784606258E0,-1.069013379E-3,1.084284950E-2,4.909825623E-1
3.786733810E0,-3.512472380E-3,1.450803876E-2,4.934260249E-1
3.788861362E0,1.527161949E-4,1.817322709E-2,4.958694875E-1
3.790988914E0,-2.290742937E-3,1.572976820E-2,5.007563829E-1
3.793116466E0,-2.290742937E-3,1.572976820E-2,5.044215918E-1
3.795244071E0,-3.512472380E-3,1.450803876E-2,5.068650246E-1
3.797371623E0,-3.512472380E-3,1.939495653E-2,5.080868006E-1
3.799499175E0,-2.290742937E-3,1.572976820E-2,5.080868006E-1
3.801626727E0,-3.512472380E-3,1.572976820E-2,5.068650246E-1
3.803754331E0,-2.290742937E-3,1.695149764E-2,5.056433082E-1
3.805881883E0,-2.290742937E-3,1.817322709E-2,5.056433082E-1
3.808009435E0,-2.290742937E-3,1.695149764E-2,5.056433082E-1
3.810136987E0,-2.290742937E-3,1.817322709E-2,5.056433082E-1
3.812264539E0,-2.290742937E-3,1.695149764E-2,5.068650246E-1
3.814392143E0,-2.290742937E-3,1.695149764E-2,5.080868006E-1
3.816519696E0,-1.069013379E-3,1.817322709E-2,5.105302334E-1
3.818647248E0,-3.512472380E-3,1.817322709E-2,5.117519498E-1
3.820774800E0,-2.290742937E-3,1.572976820E-2,5.129737258E-1
3.822902352E0,-1.069013379E-3,1.450803876E-2,5.154171586E-1
3.825029904E0,-2.290742937E-3,1.450803876E-2,5.190823674E-1
3.827157508E0,-3.512472380E-3,1.939495653E-2,5.239692926E-1
3.829285060E0,-1.069013379E-3,1.695149764E-2,5.276344419E-1
3.831412612E0,1.527161949E-4,1.939495653E-2,5.276344419E-1
3.833540164E0,-1.069013379E-3,1.572976820E-2,5.288561583E-1
3.835667716E0,-2.290742937E-3,1.817322709E-2,5.288561583E-1
3.837795321E0,-2.290742937E-3,1.695149764E-2,5.264127254E-1
3.839922873E0,-3.512472380E-3,1.572976820E-2,5.239692926E-1
3.842050425E0,-1.069013379E-3,1.572976820E-2,5.166388750E-1
3.844177977E0,1.527161949E-4,1.695149764E-2,5.080868006E-1
3.846305581E0,1.527161949E-4,1.572976820E-2,4.983129501E-1
3.848433133E0,1.374445739E-3,1.328630932E-2,4.860956371E-1
3.850560685E0,-1.069013379E-3,1.572976820E-2,4.726566374E-1
3.852688237E0,1.527161949E-4,1.572976820E-2,4.592176080E-1
3.854815789E0,-1.069013379E-3,1.450803876E-2,4.445568323E-1
3.856943341E0,-1.069013379E-3,1.206457894E-2,4.298960865E-1
3.859070946E0,-1.069013379E-3,1.328630932E-2,4.164570570E-1
3.861198498E0,-2.290742937E-3,1.206457894E-2,4.030180275E-1
3.863326050E0,-1.069013379E-3,1.206457894E-2,3.920224607E-1
3.865453602E0,-1.069013379E-3,1.206457894E-2,3.798051775E-1
3.867581154E0,-2.290742937E-3,1.206457894E-2,3.688096106E-1
3.869708758E0,-1.069013379E-3,1.206457894E-2,3.602575064E-1
3.871836310E0,-1.069013379E-3,1.328630932E-2,3.541488647E-1
3.873963862E0,1.527161949E-4,8.399390616E-3,3.468184769E-1
3.876091414E0,-1.069013379E-3,1.084284950E-2,3.419315517E-1
3.878219018E0,-1.069013379E-3,8.399390616E-3,3.370446563E-1
3.880346571E0,-1.069013379E-3,9.621120058E-3,3.333794475E-1
3.882474123E0,-2.290742937E-3,9.621120058E-3,3.333794475E-1
3.884601675E0,-2.290742937E-3,1.084284950E-2,3.358229101E-1
3.886729227E0,-1.069013379E-3,1.206457894E-2,3.358229101E-1
3.888856779E0,-1.069013379E-3,9.621120058E-3,3.370446563E-1
3.890984383E0,1.527161949E-4,8.399390616E-3,3.394880891E-1
3.893111935E0,1.527161949E-4,1.206457894E-2,3.431532979E-1
3.895239487E0,-1.069013379E-3,1.084284950E-2,3.468184769E-1
3.897367039E0,-2.290742937E-3,9.621120058E-3,3.529271185E-1
3.899494591E0,1.527161949E-4,1.450803876E-2,3.578140438E-1
3.901622196E0,-1.069013379E-3,1.206457894E-2,3.602575064E-1
3.903749748E0,-1.069013379E-3,1.206457894E-2,3.663661480E-1
3.905877300E0,-1.069013379E-3,1.328630932E-2,3.712530732E-1
3.908004852E0,-1.069013379E-3,1.695149764E-2,3.773617148E-1
3.910132404E0,-2.290742937E-3,1.206457894E-2,3.810268939E-1
3.912260008E0,-1.069013379E-3,1.206457894E-2,3.859138191E-1
3.914387560E0,-1.069013379E-3,1.328630932E-2,3.895790279E-1
3.916515112E0,-1.069013379E-3,1.206457894E-2,3.920224607E-1
3.918642664E0,-1.069013379E-3,1.206457894E-2,3.944659233E-1
3.920770216E0,1.527161949E-4,1.450803876E-2,3.969093859E-1
3.922897821E0,-1.069013379E-3,1.206457894E-2,3.993528485E-1
3.925025373E0,-1.069013379E-3,1.572976820E-2,3.969093859E-1
3.927152925E0,1.527161949E-4,1.328630932E-2,3.969093859E-1
3.929280477E0,1.374445739E-3,1.572976820E-2,3.944659233E-1
3.931408029E0,-1.069013379E-3,1.206457894E-2,3.908007443E-1
3.933535633E0,-1.069013379E-3,1.206457894E-2,3.871355653E-1
3.935663185E0,-2.290742937E-3,1.206457894E-2,3.822486401E-1
3.937790737E0,-1.069013379E-3,1.084284950E-2,3.785834610E-1
3.939918289E0,-1.069013379E-3,1.206457894E-2,3.724747896E-1
3.942045893E0,1.527161949E-4,1.450803876E-2,3.712530732E-1
3.944173446E0,-2.290742937E-3,1.206457894E-2,3.688096106E-1
3.946300998E0,1.527161949E-4,1.206457894E-2,3.651444316E-1
3.948428550E0,-1.069013379E-3,1.206457894E-2,3.639226854E-1
3.950556102E0,-1.069013379E-3,1.328630932E-2,3.614792228E-1
3.952683706E0,-1.069013379E-3,1.084284950E-2,3.602575064E-1
3.954811258E0,-2.290742937E-3,1.084284950E-2,3.590357602E-1
3.956938810E0,-1.069013379E-3,1.206457894E-2,3.565923274E-1
3.959066362E0,1.527161949E-4,9.621120058E-3,3.578140438E-1
3.961193914E0,-3.512472380E-3,1.328630932E-2,3.590357602E-1
3.963321518E0,-1.069013379E-3,1.084284950E-2,3.590357602E-1
3.965449071E0,-2.290742937E-3,1.206457894E-2,3.602575064E-1
3.967576623E0,-2.290742937E-3,1.084284950E-2,3.627009690E-1
3.969704175E0,-1.069013379E-3,1.328630932E-2,3.651444316E-1
3.971831727E0,-1.069013379E-3,1.206457894E-2,3.675878942E-1
3.973959279E0,-1.069013379E-3,1.328630932E-2,3.712530732E-1
3.976086883E0,-2.290742937E-3,1.450803876E-2,3.761399984E-1
3.978214435E0,-2.290742937E-3,1.084284950E-2,3.798051775E-1
3.980341987E0,-2.290742937E-3,1.206457894E-2,3.846921027E-1
3.982469539E0,-1.069013379E-3,1.450803876E-2,3.895790279E-1
3.984597091E0,-1.069013379E-3,1.084284950E-2,3.956876695E-1
3.986724696E0,-1.069013379E-3,1.084284950E-2,4.005745649E-1
3.988852248E0,-1.069013379E-3,1.572976820E-2,4.042397738E-1
3.990979800E0,-2.290742937E-3,1.450803876E-2,4.042397738E-1
3.993107352E0,-3.512472380E-3,1.328630932E-2,4.054614902E-1
3.995234956E0,-1.069013379E-3,9.621120058E-3,4.066832364E-1
3.997362508E0,-1.069013379E-3,1.328630932E-2,4.066832364E-1
3.999490060E0,-1.069013379E-3,1.450803876E-2,4.030180275E-1
4.001617612E0,-1.069013379E-3,1.450803876E-2,3.969093859E-1
4.003745164E0,-1.069013379E-3,1.328630932E-2,3.920224607E-1
4.005872716E0,-1.069013379E-3,1.084284950E-2,3.834703565E-1
4.008000321E0,1.527161949E-4,1.328630932E-2,3.761399984E-1
4.010127873E0,-2.290742937E-3,1.206457894E-2,3.700313270E-1
4.012255425E0,2.596175298E-3,1.084284950E-2,3.614792228E-1
4.014382977E0,-1.069013379E-3,1.084284950E-2,3.541488647E-1
4.016510581E0,-1.069013379E-3,1.206457894E-2,3.492619395E-1
4.018638133E0,1.527161949E-4,9.621120058E-3,3.419315517E-1
4.020765685E0,-1.069013379E-3,9.621120058E-3,3.382663727E-1
4.022893237E0,-1.069013379E-3,9.621120058E-3,3.321577311E-1
4.025020789E0,1.527161949E-4,9.621120058E-3,3.260490894E-1
4.027148341E0,-1.069013379E-3,8.399390616E-3,3.211621642E-1
4.029275946E0,-1.069013379E-3,9.621120058E-3,3.174969554E-1
4.031403498E0,-1.069013379E-3,9.621120058E-3,3.174969554E-1
4.033531050E0,1.527161949E-4,9.621120058E-3,3.150535226E-1
4.035658602E0,-1.069013379E-3,9.621120058E-3,3.162752390E-1
4.037786154E0,1.374445739E-3,9.621120058E-3,3.150535226E-1
4.039913758E0,-1.069013379E-3,9.621120058E-3,3.162752390E-1
4.042041310E0,1.527161949E-4,8.399390616E-3,3.150535226E-1
4.044168862E0,-1.069013379E-3,9.621120058E-3,3.174969554E-1
4.046296414E0,1.527161949E-4,1.206457894E-2,3.199404180E-1
4.048423966E0,1.527161949E-4,1.206457894E-2,3.223838806E-1
4.050551571E0,1.527161949E-4,1.328630932E-2,3.260490894E-1
4.052679123E0,-1.069013379E-3,9.621120058E-3,3.248273432E-1
4.054806675E0,-3.512472380E-3,9.621120058E-3,3.260490894E-1
4.056934227E0,-1.069013379E-3,1.328630932E-2,3.272708058E-1
4.059061779E0,-1.069013379E-3,1.206457894E-2,3.272708058E-1
4.061189383E0,-1.069013379E-3,1.206457894E-2,3.260490894E-1
4.063316935E0,-2.290742937E-3,1.206457894E-2,3.236056268E-1
4.065444487E0,-1.069013379E-3,1.206457894E-2,3.199404180E-1
4.067572039E0,1.527161949E-4,1.572976820E-2,3.150535226E-1
4.069699591E0,-2.290742937E-3,1.084284950E-2,3.126100600E-1
4.071827196E0,-1.069013379E-3,1.084284950E-2,3.089448512E-1
4.073954748E0,-2.290742937E-3,1.450803876E-2,3.065013885E-1
4.076082300E0,1.527161949E-4,1.084284950E-2,2.991710305E-1
4.078209852E0,1.527161949E-4,1.206457894E-2,2.906189263E-1
4.080337404E0,-1.069013379E-3,1.450803876E-2,2.857320011E-1
4.082465008E0,1.527161949E-4,1.084284950E-2,2.820668221E-1
4.084592560E0,-1.069013379E-3,9.621120058E-3,2.747364342E-1
4.086720112E0,-1.069013379E-3,1.084284950E-2,2.637408674E-1
4.088847664E0,-3.512472380E-3,1.206457894E-2,2.564104795E-1
4.090975216E0,-2.290742937E-3,9.621120058E-3,2.503018379E-1
4.093102768E0,-1.069013379E-3,7.177661173E-3,2.417497337E-1
4.095230373E0,1.527161949E-4,8.399390616E-3,2.344193608E-1
4.097357925E0,1.527161949E-4,4.734201822E-3,2.234237939E-1
4.099485477E0,-1.069013379E-3,7.177661173E-3,2.160934210E-1
4.101613029E0,-2.290742937E-3,8.399390616E-3,2.087630332E-1
4.103740633E0,-1.069013379E-3,4.734201822E-3,2.038761228E-1
4.105868185E0,1.527161949E-4,7.177661173E-3,2.002109289E-1
4.107995737E0,-2.290742937E-3,1.084284950E-2,2.002109289E-1
4.110123289E0,-1.069013379E-3,8.399390616E-3,1.989891976E-1
4.112250841E0,-1.069013379E-3,4.734201822E-3,1.965457499E-1
4.114378446E0,-1.069013379E-3,9.621120058E-3,1.965457499E-1
4.116505998E0,-1.069013379E-3,8.399390616E-3,1.965457499E-1
4.118633550E0,-1.069013379E-3,5.955931731E-3,1.953240186E-1
4.120761102E0,-1.069013379E-3,8.399390616E-3,1.953240186E-1
4.122888654E0,-2.290742937E-3,5.955931731E-3,1.892153621E-1
4.125016206E0,-1.069013379E-3,7.177661173E-3,1.855501831E-1
4.127143810E0,-1.069013379E-3,8.399390616E-3,1.818849891E-1
4.129271362E0,1.527161949E-4,7.177661173E-3,1.806632578E-1
4.131398914E0,-1.069013379E-3,7.177661173E-3,1.806632578E-1
4.133526466E0,-1.069013379E-3,4.734201822E-3,1.831067204E-1
4.135654071E0,-1.069013379E-3,4.734201822E-3,1.806632578E-1
4.137781623E0,-2.290742937E-3,7.177661173E-3,1.818849891E-1
4.139909175E0,-1.069013379E-3,5.955931731E-3,1.782197952E-1
4.142036727E0,-2.290742937E-3,5.955931731E-3,1.769980639E-1
4.144164279E0,-2.290742937E-3,5.955931731E-3,1.757763475E-1
4.146291883E0,-2.290742937E-3,5.955931731E-3,1.745546162E-1
4.148419435E0,1.527161949E-4,7.177661173E-3,1.745546162E-1
4.150546987E0,-1.069013379E-3,5.955931731E-3,1.745546162E-1
4.152674539E0,-1.069013379E-3,4.734201822E-3,1.757763475E-1
4.154802091E0,1.527161949E-4,5.955931731E-3,1.757763475E-1
4.156929643E0,-2.290742937E-3,5.955931731E-3,1.769980639E-1
4.159057248E0,1.374445739E-3,4.734201822E-3,1.757763475E-1
4.161184800E0,1.527161949E-4,4.734201822E-3,1.733328849E-1
4.163312352E0,-1.069013379E-3,5.955931731E-3,1.696676910E-1
4.165439904E0,1.527161949E-4,5.955931731E-3,1.708894223E-1
4.167567508E0,1.527161949E-4,4.734201822E-3,1.708894223E-1
4.169695060E0,1.527161949E-4,5.955931731E-3,1.733328849E-1
4.171822612E0,1.527161949E-4,5.955931731E-3,1.757763475E-1
4.173950164E0,1.527161949E-4,4.734201822E-3,1.794415265E-1
4.176077716E0,1.374445739E-3,5.955931731E-3,1.831067204E-1
4.178205268E0,-1.069013379E-3,5.955931731E-3,1.892153621E-1
4.180332873E0,1.527161949E-4,5.955931731E-3,1.941022873E-1
4.182460425E0,-1.069013379E-3,5.955931731E-3,1.989891976E-1
4.184587977E0,-1.069013379E-3,7.177661173E-3,2.038761228E-1
4.186715529E0,-1.069013379E-3,4.734201822E-3,2.087630332E-1
4.188843133E0,1.527161949E-4,4.734201822E-3,2.112064958E-1
4.190970685E0,1.527161949E-4,4.734201822E-3,2.160934210E-1
4.193098237E0,1.374445739E-3,7.177661173E-3,2.173151523E-1
4.195225789E0,1.527161949E-4,5.955931731E-3,2.209803313E-1
4.197353341E0,-1.069013379E-3,7.177661173E-3,2.258672565E-1
4.199480893E0,-1.069013379E-3,7.177661173E-3,2.283107042E-1
4.201608498E0,1.374445739E-3,4.734201822E-3,2.319758981E-1
4.203736050E0,-1.069013379E-3,7.177661173E-3,2.344193608E-1
4.205863602E0,1.527161949E-4,7.177661173E-3,2.368628234E-1
4.207991154E0,2.596175298E-3,5.955931731E-3,2.417497337E-1
4.210118706E0,1.527161949E-4,7.177661173E-3,2.429714650E-1
4.212246310E0,1.527161949E-4,7.177661173E-3,2.466366589E-1
4.214373862E0,1.527161949E-4,8.399390616E-3,2.490801066E-1
4.216501414E0,-3.512472380E-3,5.955931731E-3,2.515235841E-1
4.218628966E0,-1.069013379E-3,8.399390616E-3,2.551887631E-1
4.220756571E0,1.527161949E-4,7.177661173E-3,2.564104795E-1
4.222884123E0,-1.069013379E-3,9.621120058E-3,2.576322258E-1
4.225011675E0,1.527161949E-4,9.621120058E-3,2.588539422E-1
4.227139227E0,-1.069013379E-3,8.399390616E-3,2.612974048E-1
4.229266779E0,-3.512472380E-3,7.177661173E-3,2.600756884E-1
4.231394331E0,-1.069013379E-3,8.399390616E-3,2.600756884E-1
4.233521935E0,1.527161949E-4,8.399390616E-3,2.612974048E-1
4.235649487E0,1.527161949E-4,7.177661173E-3,2.600756884E-1
4.237777039E0,-1.069013379E-3,8.399390616E-3,2.588539422E-1
4.239904591E0,1.527161949E-4,5.955931731E-3,2.564104795E-1
4.242032143E0,-1.069013379E-3,7.177661173E-3,2.564104795E-1
4.244159696E0,1.527161949E-4,5.955931731E-3,2.539670467E-1
4.246287300E0,2.596175298E-3,4.734201822E-3,2.503018379E-1
4.248414852E0,1.527161949E-4,5.955931731E-3,2.478583902E-1
