"Time (s)","Gyroscope x (rad/s)","Gyroscope y (rad/s)","Gyroscope z (rad/s)"
1.882657000E-2,-1.527161949E-4,-1.527161949E-4,-4.581485991E-4
2.095412200E-2,1.069013379E-3,-1.374445739E-3,-4.581485991E-4
2.308162200E-2,-1.527161949E-4,-1.374445739E-3,-4.581485991E-4
2.520917400E-2,-1.374445739E-3,-1.527161949E-4,-4.581485991E-4
2.733672600E-2,-1.527161949E-4,-1.527161949E-4,7.635809598E-4
2.946422600E-2,-1.527161949E-4,-1.527161949E-4,-4.581485991E-4
3.159177900E-2,-2.596175298E-3,1.069013379E-3,7.635809598E-4
3.371927900E-2,-1.527161949E-4,-1.374445739E-3,-4.581485991E-4
3.584683100E-2,1.069013379E-3,-1.527161949E-4,-4.581485991E-4
3.797438300E-2,-1.527161949E-4,-1.527161949E-4,-4.581485991E-4
4.010188300E-2,-1.527161949E-4,-1.527161949E-4,-4.581485991E-4
4.222943500E-2,-1.527161949E-4,-2.596175298E-3,7.635809598E-4
4.435698700E-2,-1.527161949E-4,-1.527161949E-4,-4.581485991E-4
4.648448700E-2,-1.527161949E-4,-1.374445739E-3,-4.581485991E-4
4.861203900E-2,-1.374445739E-3,-1.527161949E-4,7.635809598E-4
5.073959100E-2,-1.527161949E-4,2.290742937E-3,7.635809598E-4
5.286709100E-2,-1.527161949E-4,-1.527161949E-4,7.635809598E-4
5.499464300E-2,-1.527161949E-4,-1.527161949E-4,-4.581485991E-4
5.712219500E-2,-1.374445739E-3,-1.527161949E-4,-4.581485991E-4
5.924969500E-2,-1.374445739E-3,-1.527161949E-4,7.635809598E-4
6.137724700E-2,-1.527161949E-4,-1.527161949E-4,7.635809598E-4
6.350479900E-2,-1.374445739E-3,-1.527161949E-4,-4.581485991E-4
6.563229900E-2,-1.374445739E-3,-1.527161949E-4,-4.581485991E-4
6.775985100E-2,-1.374445739E-3,-1.527161949E-4,7.635809598E-4
6.988735100E-2,-1.374445739E-3,-1.527161949E-4,7.635809598E-4
7.201490400E-2,-1.527161949E-4,-1.527161949E-4,7.635809598E-4
7.414245600E-2,-1.527161949E-4,-1.527161949E-4,-1.679878100E-3
7.626995600E-2,-1.527161949E-4,1.069013379E-3,-4.581485991E-4
7.839750800E-2,1.069013379E-3,-1.527161949E-4,-4.581485991E-4
8.052506000E-2,-1.527161949E-4,-1.527161949E-4,-1.679878100E-3
8.265256000E-2,-1.527161949E-4,-1.374445739E-3,-4.581485991E-4
8.478011200E-2,-1.374445739E-3,-1.527161949E-4,-4.581485991E-4
8.690761200E-2,-1.374445739E-3,1.069013379E-3,7.635809598E-4
8.903516400E-2,-1.527161949E-4,-1.527161949E-4,-4.581485991E-4
9.116271600E-2,1.069013379E-3,-1.527161949E-4,-4.581485991E-4
9.329026800E-2,-1.527161949E-4,-1.527161949E-4,-4.581485991E-4
9.541776800E-2,-1.374445739E-3,-1.527161949E-4,-4.581485991E-4
9.754532000E-2,-1.374445739E-3,-1.527161949E-4,-4.581485991E-4
9.967282000E-2,-1.374445739E-3,1.069013379E-3,-4.581485991E-4
1.018003720E-1,-1.527161949E-4,-1.527161949E-4,-4.581485991E-4
1.039279240E-1,-1.374445739E-3,-1.527161949E-4,-1.679878100E-3
1.060554240E-1,-1.527161949E-4,-1.527161949E-4,-1.679878100E-3
1.081829760E-1,-1.374445739E-3,-1.527161949E-4,-4.581485991E-4
1.103105290E-1,-1.527161949E-4,-1.527161949E-4,7.635809598E-4
1.124380290E-1,-1.527161949E-4,-1.527161949E-4,7.635809598E-4
1.145655810E-1,-1.527161949E-4,-1.527161949E-4,-4.581485991E-4
1.166931330E-1,-1.527161949E-4,-1.527161949E-4,-4.581485991E-4
1.188206330E-1,2.290742937E-3,1.069013379E-3,7.635809598E-4
1.209481850E-1,-1.527161949E-4,-1.527161949E-4,-4.581485991E-4
1.230756850E-1,1.069013379E-3,-1.527161949E-4,-4.581485991E-4
1.252032370E-1,-1.527161949E-4,-1.374445739E-3,-4.581485991E-4
1.273307890E-1,-1.374445739E-3,-1.374445739E-3,-4.581485991E-4
1.294582890E-1,-1.527161949E-4,-1.527161949E-4,-4.581485991E-4
1.315858410E-1,-1.527161949E-4,-1.374445739E-3,7.635809598E-4
1.337133930E-1,1.069013379E-3,1.069013379E-3,7.635809598E-4
1.358408930E-1,-1.374445739E-3,-1.527161949E-4,-4.581485991E-4
1.379684450E-1,-1.374445739E-3,-1.527161949E-4,-1.679878100E-3
1.400959970E-1,-1.527161949E-4,-1.527161949E-4,-4.581485991E-4
1.422234970E-1,1.069013379E-3,-1.527161949E-4,-4.581485991E-4
1.443510490E-1,-1.527161949E-4,-1.527161949E-4,-4.581485991E-4
1.464785490E-1,-1.527161949E-4,-1.527161949E-4,-4.581485991E-4
1.486061010E-1,-1.374445739E-3,-1.374445739E-3,-4.581485991E-4
1.507336540E-1,-1.527161949E-4,-1.527161949E-4,-4.581485991E-4
1.528611540E-1,-1.374445739E-3,-1.527161949E-4,7.635809598E-4
1.549887060E-1,1.069013379E-3,-1.527161949E-4,7.635809598E-4
1.571162580E-1,-1.527161949E-4,1.069013379E-3,7.635809598E-4
1.592437580E-1,-1.527161949E-4,-1.527161949E-4,-1.679878100E-3
1.613713100E-1,-1.527161949E-4,-1.374445739E-3,-4.581485991E-4
1.634988620E-1,-1.527161949E-4,1.069013379E-3,-4.581485991E-4
1.656263620E-1,2.290742937E-3,1.069013379E-3,-1.679878100E-3
1.677539140E-1,-1.527161949E-4,-1.527161949E-4,-4.581485991E-4
1.698814660E-1,1.069013379E-3,-1.374445739E-3,7.635809598E-4
1.720089660E-1,-1.374445739E-3,-1.527161949E-4,7.635809598E-4
1.741365180E-1,-1.374445739E-3,-1.374445739E-3,-4.581485991E-4
1.762640700E-1,-1.527161949E-4,1.069013379E-3,7.635809598E-4
1.783915700E-1,-1.527161949E-4,1.069013379E-3,-4.581485991E-4
1.805191220E-1,-1.374445739E-3,-1.527161949E-4,7.635809598E-4
1.826466740E-1,-1.374445739E-3,1.069013379E-3,7.635809598E-4
1.847741740E-1,1.069013379E-3,1.069013379E-3,-4.581485991E-4
1.869017260E-1,-1.374445739E-3,-1.374445739E-3,7.635809598E-4
1.890292260E-1,-1.374445739E-3,1.069013379E-3,7.635809598E-4
1.911567790E-1,2.290742937E-3,-1.374445739E-3,-1.679878100E-3
1.932843310E-1,1.069013379E-3,1.069013379E-3,7.635809598E-4
1.954118310E-1,-1.527161949E-4,-1.527161949E-4,-4.581485991E-4
1.975393830E-1,-1.527161949E-4,-1.527161949E-4,7.635809598E-4
1.996669350E-1,-2.596175298E-3,-1.527161949E-4,7.635809598E-4
2.017944350E-1,-1.374445739E-3,-1.527161949E-4,7.635809598E-4
2.039219870E-1,1.069013379E-3,-1.527161949E-4,7.635809598E-4
2.060495390E-1,-1.527161949E-4,1.069013379E-3,7.635809598E-4
2.081770390E-1,1.069013379E-3,-1.527161949E-4,-4.581485991E-4
2.103045910E-1,-1.374445739E-3,-1.527161949E-4,7.635809598E-4
2.124321430E-1,1.069013379E-3,1.069013379E-3,-4.581485991E-4
2.145596430E-1,1.069013379E-3,-1.527161949E-4,7.635809598E-4
2.166871950E-1,-1.527161949E-4,1.069013379E-3,-4.581485991E-4
2.188146950E-1,-1.527161949E-4,-1.527161949E-4,-4.581485991E-4
2.209422470E-1,1.069013379E-3,-1.374445739E-3,7.635809598E-4
2.230697990E-1,-1.374445739E-3,-1.527161949E-4,7.635809598E-4
2.251972990E-1,-1.527161949E-4,-1.527161949E-4,7.635809598E-4
2.273248510E-1,1.069013379E-3,1.069013379E-3,-4.581485991E-4
2.294524040E-1,-1.527161949E-4,2.290742937E-3,7.635809598E-4
2.315799040E-1,1.069013379E-3,-1.374445739E-3,7.635809598E-4
2.337074560E-1,1.069013379E-3,-1.374445739E-3,-4.581485991E-4
2.358350080E-1,-1.527161949E-4,-1.527161949E-4,7.635809598E-4
2.379625080E-1,1.069013379E-3,-1.527161949E-4,7.635809598E-4
2.400900600E-1,1.069013379E-3,-1.527161949E-4,-4.581485991E-4
2.422175600E-1,-1.527161949E-4,-1.527161949E-4,-1.679878100E-3
2.443451120E-1,1.069013379E-3,-1.527161949E-4,7.635809598E-4
2.464726640E-1,-1.374445739E-3,-1.527161949E-4,7.635809598E-4
2.486001640E-1,-1.527161949E-4,1.069013379E-3,-4.581485991E-4
2.507277160E-1,-1.527161949E-4,1.069013379E-3,7.635809598E-4
2.528552680E-1,-1.527161949E-4,-1.527161949E-4,-4.581485991E-4
2.549827680E-1,-1.527161949E-4,1.069013379E-3,7.635809598E-4
2.571103200E-1,-1.374445739E-3,-1.527161949E-4,-4.581485991E-4
2.592378720E-1,-1.527161949E-4,-1.374445739E-3,-1.679878100E-3
2.613653720E-1,-1.527161949E-4,-1.527161949E-4,-1.679878100E-3
2.634929240E-1,-1.527161949E-4,-1.527161949E-4,-4.581485991E-4
2.656204760E-1,-1.527161949E-4,-1.374445739E-3,7.635809598E-4
2.677479760E-1,-1.527161949E-4,-1.527161949E-4,-4.581485991E-4
2.698755290E-1,-1.527161949E-4,1.069013379E-3,-4.581485991E-4
2.720030810E-1,-1.527161949E-4,1.069013379E-3,-4.581485991E-4
2.741305810E-1,-1.374445739E-3,-1.527161949E-4,7.635809598E-4
2.762581330E-1,-1.527161949E-4,-1.527161949E-4,7.635809598E-4
2.783856330E-1,-1.374445739E-3,-1.527161949E-4,-4.581485991E-4
2.805131850E-1,-1.374445739E-3,2.290742937E-3,-4.581485991E-4
2.826407370E-1,-1.374445739E-3,1.069013379E-3,-4.581485991E-4
2.847682370E-1,1.069013379E-3,-1.527161949E-4,7.635809598E-4
2.868957890E-1,1.069013379E-3,-1.374445739E-3,7.635809598E-4
2.890233410E-1,-1.527161949E-4,-1.527161949E-4,1.985310577E-3
2.911508410E-1,-1.374445739E-3,1.069013379E-3,-4.581485991E-4
2.932783930E-1,-1.527161949E-4,-1.527161949E-4,-4.581485991E-4
2.954058930E-1,-1.374445739E-3,-1.527161949E-4,-4.581485991E-4
2.975334450E-1,-1.374445739E-3,-1.374445739E-3,-4.581485991E-4
2.996609970E-1,-1.374445739E-3,1.069013379E-3,7.635809598E-4
3.017884970E-1,1.069013379E-3,-1.527161949E-4,-4.581485991E-4
3.039160490E-1,1.069013379E-3,-1.527161949E-4,-4.581485991E-4
3.060436010E-1,-1.527161949E-4,-1.527161949E-4,7.635809598E-4
3.081711010E-1,2.290742937E-3,-1.374445739E-3,-4.581485991E-4
3.102986540E-1,1.069013379E-3,2.290742937E-3,-1.679878100E-3
3.124262060E-1,-1.374445739E-3,-1.374445739E-3,-4.581485991E-4
3.145537060E-1,-1.527161949E-4,-1.527161949E-4,7.635809598E-4
3.166812580E-1,1.069013379E-3,-1.527161949E-4,-4.581485991E-4
3.188088100E-1,-1.527161949E-4,-1.374445739E-3,-4.581485991E-4
3.209363100E-1,1.069013379E-3,1.069013379E-3,7.635809598E-4
3.230638620E-1,1.069013379E-3,1.069013379E-3,7.635809598E-4
3.251913620E-1,-1.527161949E-4,-1.374445739E-3,-4.581485991E-4
3.273189140E-1,-1.527161949E-4,-1.527161949E-4,-4.581485991E-4
3.294464660E-1,1.069013379E-3,-1.527161949E-4,-4.581485991E-4
3.315739660E-1,-1.527161949E-4,-1.374445739E-3,-1.679878100E-3
3.337015180E-1,1.069013379E-3,1.069013379E-3,7.635809598E-4
3.358290700E-1,-1.374445739E-3,1.069013379E-3,7.635809598E-4
3.379565700E-1,1.069013379E-3,1.069013379E-3,7.635809598E-4
3.400841220E-1,-1.527161949E-4,1.069013379E-3,-4.581485991E-4
3.422116740E-1,-1.527161949E-4,1.069013379E-3,-4.581485991E-4
3.443391740E-1,-1.374445739E-3,-1.527161949E-4,-4.581485991E-4
3.464667260E-1,-1.374445739E-3,1.069013379E-3,-4.581485991E-4
3.485942790E-1,1.069013379E-3,-1.374445739E-3,-4.581485991E-4
3.507217790E-1,1.069013379E-3,-1.527161949E-4,-4.581485991E-4
3.528493310E-1,-1.374445739E-3,-1.527161949E-4,-4.581485991E-4
3.549768310E-1,-1.527161949E-4,-1.527161949E-4,7.635809598E-4
3.571043830E-1,-1.374445739E-3,1.069013379E-3,7.635809598E-4
3.592319350E-1,-1.527161949E-4,-1.527161949E-4,7.635809598E-4
3.613594350E-1,1.069013379E-3,-1.374445739E-3,-1.679878100E-3
3.634869870E-1,1.069013379E-3,1.069013379E-3,-4.581485991E-4
3.656145390E-1,-1.527161949E-4,1.069013379E-3,1.985310577E-3
3.677420390E-1,-1.374445739E-3,-1.527161949E-4,-4.581485991E-4
3.698695910E-1,-1.374445739E-3,-1.527161949E-4,-4.581485991E-4
3.719971430E-1,-1.527161949E-4,-1.527161949E-4,7.635809598E-4
3.741246430E-1,2.290742937E-3,-1.527161949E-4,7.635809598E-4
3.762521950E-1,-1.527161949E-4,-1.527161949E-4,1.985310577E-3
3.783796950E-1,2.290742937E-3,-1.527161949E-4,-4.581485991E-4
3.805072470E-1,-1.527161949E-4,1.069013379E-3,7.635809598E-4
3.826347990E-1,-1.527161949E-4,2.290742937E-3,7.635809598E-4
3.847622990E-1,-1.374445739E-3,-1.527161949E-4,7.635809598E-4
3.868898510E-1,-1.374445739E-3,-1.374445739E-3,-4.581485991E-4
3.890174040E-1,1.069013379E-3,-1.527161949E-4,7.635809598E-4
3.911449040E-1,-1.527161949E-4,-1.527161949E-4,-4.581485991E-4
3.932724560E-1,-1.374445739E-3,1.069013379E-3,7.635809598E-4
3.954000080E-1,-1.527161949E-4,-1.527161949E-4,-4.581485991E-4
3.975275080E-1,1.069013379E-3,-1.527161949E-4,7.635809598E-4
3.996550600E-1,-1.527161949E-4,1.069013379E-3,7.635809598E-4
4.017826120E-1,-1.374445739E-3,-1.527161949E-4,-1.679878100E-3
4.039101120E-1,-1.374445739E-3,-1.527161949E-4,7.635809598E-4
4.060376640E-1,-1.527161949E-4,-1.527161949E-4,7.635809598E-4
4.081651640E-1,-2.596175298E-3,1.069013379E-3,-4.581485991E-4
4.102927160E-1,1.069013379E-3,-1.374445739E-3,-4.581485991E-4
4.124202680E-1,1.069013379E-3,-1.374445739E-3,-4.581485991E-4
4.145477680E-1,1.069013379E-3,1.069013379E-3,7.635809598E-4
4.166753200E-1,-1.374445739E-3,1.069013379E-3,-4.581485991E-4
4.188028720E-1,-1.527161949E-4,-1.527161949E-4,-4.581485991E-4
4.209303720E-1,-1.527161949E-4,-1.374445739E-3,-4.581485991E-4
4.230579240E-1,-1.527161949E-4,-1.527161949E-4,1.985310577E-3
4.251854760E-1,-1.527161949E-4,-1.527161949E-4,7.635809598E-4
4.273129760E-1,-1.527161949E-4,1.069013379E-3,7.635809598E-4
4.294405290E-1,-1.374445739E-3,-1.374445739E-3,-4.581485991E-4
4.315680290E-1,-1.374445739E-3,-1.527161949E-4,-4.581485991E-4
4.336955810E-1,-1.374445739E-3,-1.527161949E-4,-4.581485991E-4
4.358231330E-1,-1.527161949E-4,-1.527161949E-4,7.635809598E-4
4.379506330E-1,-1.527161949E-4,-1.527161949E-4,7.635809598E-4
4.400781850E-1,1.069013379E-3,-1.527161949E-4,-4.581485991E-4
4.422057370E-1,1.069013379E-3,-1.527161949E-4,-4.581485991E-4
4.443332370E-1,-1.374445739E-3,-1.374445739E-3,7.635809598E-4
4.464607890E-1,-1.527161949E-4,1.069013379E-3,1.985310577E-3
4.485883410E-1,-1.374445739E-3,1.069013379E-3,-4.581485991E-4
4.507158410E-1,-1.527161949E-4,-1.527161949E-4,7.635809598E-4
4.528433930E-1,-1.527161949E-4,1.069013379E-3,7.635809598E-4
4.549709450E-1,-1.527161949E-4,-1.527161949E-4,-4.581485991E-4
4.570984450E-1,-1.527161949E-4,-1.374445739E-3,7.635809598E-4
4.592259970E-1,-1.527161949E-4,1.069013379E-3,1.985310577E-3
4.613535490E-1,-1.527161949E-4,-1.527161949E-4,-4.581485991E-4
4.634810490E-1,1.069013379E-3,-1.527161949E-4,-4.581485991E-4
4.656086010E-1,-1.374445739E-3,-1.527161949E-4,7.635809598E-4
4.677361010E-1,-1.374445739E-3,-1.527161949E-4,7.635809598E-4
4.698636540E-1,-2.596175298E-3,1.069013379E-3,7.635809598E-4
4.719912060E-1,-1.527161949E-4,-1.527161949E-4,-4.581485991E-4
4.741187060E-1,-1.527161949E-4,-1.374445739E-3,-4.581485991E-4
4.762462580E-1,1.069013379E-3,-1.527161949E-4,7.635809598E-4
4.783738100E-1,-1.527161949E-4,-1.527161949E-4,-4.581485991E-4
4.805013100E-1,-1.527161949E-4,-1.374445739E-3,-4.581485991E-4
4.826288620E-1,1.069013379E-3,-1.527161949E-4,-4.581485991E-4
4.847564140E-1,1.069013379E-3,-1.374445739E-3,7.635809598E-4
4.868839140E-1,-1.374445739E-3,1.069013379E-3,7.635809598E-4
4.890114660E-1,-1.527161949E-4,-1.527161949E-4,-4.581485991E-4
4.911389660E-1,-1.374445739E-3,-1.527161949E-4,-4.581485991E-4
4.932665180E-1,-1.374445739E-3,1.069013379E-3,-4.581485991E-4
4.953940700E-1,1.069013379E-3,-1.374445739E-3,-4.581485991E-4
4.975215700E-1,-1.527161949E-4,-1.374445739E-3,-4.581485991E-4
4.996491220E-1,-1.374445739E-3,-1.527161949E-4,-4.581485991E-4
5.017766740E-1,-1.527161949E-4,-1.527161949E-4,-4.581485991E-4
5.039041740E-1,1.069013379E-3,-1.527161949E-4,-4.581485991E-4
5.060317260E-1,-1.527161949E-4,-1.527161949E-4,7.635809598E-4
5.081592790E-1,-1.527161949E-4,1.069013379E-3,7.635809598E-4
5.102867790E-1,1.069013379E-3,1.069013379E-3,-4.581485991E-4
5.124143310E-1,-1.527161949E-4,-1.527161949E-4,-4.581485991E-4
5.145418830E-1,1.069013379E-3,-1.374445739E-3,-4.581485991E-4
5.166693830E-1,-1.527161949E-4,1.069013379E-3,7.635809598E-4
5.187969350E-1,-2.596175298E-3,-1.527161949E-4,-4.581485991E-4
5.209244350E-1,-1.527161949E-4,1.069013379E-3,-4.581485991E-4
5.230519870E-1,1.069013379E-3,1.069013379E-3,7.635809598E-4
5.251795390E-1,1.069013379E-3,-1.527161949E-4,-4.581485991E-4
5.273070390E-1,-1.527161949E-4,-1.527161949E-4,7.635809598E-4
5.294345910E-1,-1.527161949E-4,1.069013379E-3,7.635809598E-4
5.315621430E-1,-1.527161949E-4,-1.374445739E-3,7.635809598E-4
5.336896430E-1,1.069013379E-3,-1.527161949E-4,7.635809598E-4
5.358171950E-1,-1.527161949E-4,-1.527161949E-4,-1.679878100E-3
5.379446950E-1,-1.527161949E-4,1.069013379E-3,-4.581485991E-4
5.400722470E-1,-1.374445739E-3,-1.374445739E-3,7.635809598E-4
5.421997990E-1,-1.527161949E-4,-1.527161949E-4,-4.581485991E-4
5.443272990E-1,1.069013379E-3,1.069013379E-3,-4.581485991E-4
5.464548510E-1,-1.527161949E-4,-1.527161949E-4,7.635809598E-4
5.485824040E-1,-1.374445739E-3,-1.374445739E-3,-4.581485991E-4
5.507099040E-1,2.290742937E-3,-1.527161949E-4,7.635809598E-4
5.528374560E-1,-1.374445739E-3,-1.527161949E-4,7.635809598E-4
5.549650080E-1,-1.527161949E-4,1.069013379E-3,7.635809598E-4
5.570925080E-1,-1.374445739E-3,-1.527161949E-4,7.635809598E-4
5.592200600E-1,-1.527161949E-4,-1.374445739E-3,-4.581485991E-4
5.613475600E-1,-1.374445739E-3,-1.527161949E-4,-4.581485991E-4
5.634751120E-1,-1.527161949E-4,-1.527161949E-4,7.635809598E-4
5.656026640E-1,-1.527161949E-4,-1.527161949E-4,-4.581485991E-4
5.677302160E-1,-1.527161949E-4,1.069013379E-3,7.635809598E-4
5.698577160E-1,-1.527161949E-4,-1.527161949E-4,-1.679878100E-3
5.719852680E-1,1.069013379E-3,-1.527161949E-4,-4.581485991E-4
5.741127680E-1,-1.527161949E-4,-1.527161949E-4,-4.581485991E-4
5.762403200E-1,1.069013379E-3,-1.527161949E-4,-4.581485991E-4
5.783678720E-1,-1.527161949E-4,-1.527161949E-4,-4.581485991E-4
5.804953720E-1,-1.527161949E-4,-1.527161949E-4,7.635809598E-4
5.826229240E-1,1.069013379E-3,-1.527161949E-4,-1.679878100E-3
5.847504760E-1,1.069013379E-3,1.069013379E-3,-4.581485991E-4
5.868779760E-1,-1.527161949E-4,-1.527161949E-4,-4.581485991E-4
5.890055290E-1,-1.527161949E-4,-1.527161949E-4,-4.581485991E-4
5.911330290E-1,-1.527161949E-4,-1.527161949E-4,-4.581485991E-4
5.932605810E-1,-1.527161949E-4,-1.374445739E-3,-4.581485991E-4
5.953881330E-1,1.069013379E-3,-1.374445739E-3,7.635809598E-4
5.975156330E-1,-1.527161949E-4,-1.374445739E-3,7.635809598E-4
5.996431850E-1,-1.527161949E-4,-1.527161949E-4,-4.581485991E-4
6.017707370E-1,-1.527161949E-4,2.290742937E-3,7.635809598E-4
6.038982370E-1,1.069013379E-3,-1.527161949E-4,-4.581485991E-4
6.060257890E-1,1.069013379E-3,-1.374445739E-3,-4.581485991E-4
6.081533410E-1,-1.527161949E-4,-1.527161949E-4,7.635809598E-4
6.102808410E-1,-1.374445739E-3,1.069013379E-3,-4.581485991E-4
6.124083930E-1,-1.527161949E-4,-1.527161949E-4,7.635809598E-4
6.145359450E-1,-1.527161949E-4,1.069013379E-3,7.635809598E-4
6.166634450E-1,-1.527161949E-4,-1.527161949E-4,7.635809598E-4
6.187909970E-1,-1.527161949E-4,-1.374445739E-3,-4.581485991E-4
6.209184970E-1,-1.527161949E-4,-1.527161949E-4,-4.581485991E-4
6.230460490E-1,-1.527161949E-4,1.069013379E-3,7.635809598E-4
6.251736010E-1,1.069013379E-3,1.069013379E-3,7.635809598E-4
6.273011010E-1,1.069013379E-3,-1.527161949E-4,7.635809598E-4
6.294286540E-1,-1.527161949E-4,-1.527161949E-4,-4.581485991E-4
6.315562060E-1,-1.527161949E-4,-1.527161949E-4,7.635809598E-4
6.336837060E-1,-1.527161949E-4,-1.374445739E-3,-4.581485991E-4
6.358112580E-1,-1.527161949E-4,-1.527161949E-4,-4.581485991E-4
6.379387580E-1,1.069013379E-3,1.069013379E-3,-4.581485991E-4
6.400663100E-1,1.069013379E-3,-1.527161949E-4,-4.581485991E-4
6.421938620E-1,-1.527161949E-4,1.069013379E-3,-4.581485991E-4
6.443213620E-1,1.069013379E-3,-1.527161949E-4,7.635809598E-4
6.464489140E-1,-1.527161949E-4,-1.527161949E-4,-4.581485991E-4
6.485764660E-1,1.069013379E-3,1.069013379E-3,7.635809598E-4
6.507039660E-1,-1.527161949E-4,-1.527161949E-4,7.635809598E-4
6.528315180E-1,-1.374445739E-3,-1.527161949E-4,7.635809598E-4
6.549590700E-1,-1.527161949E-4,-1.527161949E-4,7.635809598E-4
6.570865700E-1,-1.374445739E-3,-1.527161949E-4,7.635809598E-4
6.592141220E-1,-1.374445739E-3,-1.527161949E-4,7.635809598E-4
6.613416220E-1,1.069013379E-3,-1.527161949E-4,-1.679878100E-3
6.634691740E-1,-1.374445739E-3,-1.527161949E-4,-4.581485991E-4
6.655967260E-1,-1.374445739E-3,-1.527161949E-4,-4.581485991E-4
6.677242260E-1,-2.596175298E-3,-1.374445739E-3,-4.581485991E-4
6.698517790E-1,-1.374445739E-3,-1.527161949E-4,7.635809598E-4
6.719793310E-1,-2.596175298E-3,-1.374445739E-3,-4.581485991E-4
6.741068310E-1,1.069013379E-3,-1.374445739E-3,-4.581485991E-4
6.762343830E-1,-1.527161949E-4,-1.374445739E-3,-4.581485991E-4
6.783619350E-1,-1.374445739E-3,-1.527161949E-4,-4.581485991E-4
6.804894350E-1,-1.527161949E-4,-1.527161949E-4,-4.581485991E-4
6.826169870E-1,-1.527161949E-4,-1.374445739E-3,-4.581485991E-4
6.847445390E-1,1.069013379E-3,-1.374445739E-3,-4.581485991E-4
6.868720390E-1,-1.527161949E-4,-1.527161949E-4,-4.581485991E-4
6.889995910E-1,-1.527161949E-4,1.069013379E-3,7.635809598E-4
6.911270910E-1,-1.527161949E-4,-1.527161949E-4,7.635809598E-4
6.932546430E-1,-1.527161949E-4,-1.527161949E-4,-4.581485991E-4
6.953821950E-1,-1.527161949E-4,1.069013379E-3,7.635809598E-4
6.975096950E-1,1.069013379E-3,-1.527161949E-4,-4.581485991E-4
6.996372470E-1,-1.527161949E-4,-1.527161949E-4,-1.679878100E-3
7.017647990E-1,1.069013379E-3,-1.374445739E-3,-1.679878100E-3
7.038922990E-1,-1.527161949E-4,-1.374445739E-3,7.635809598E-4
7.060198510E-1,-1.374445739E-3,-1.527161949E-4,7.635809598E-4
7.081474040E-1,-1.527161949E-4,1.069013379E-3,7.635809598E-4
7.102749040E-1,-1.527161949E-4,-1.527161949E-4,-4.581485991E-4
7.124024560E-1,-1.527161949E-4,-1.527161949E-4,-4.581485991E-4
7.145299560E-1,1.069013379E-3,-1.374445739E-3,-1.679878100E-3
7.166575080E-1,-1.527161949E-4,-1.527161949E-4,-4.581485991E-4
7.187850600E-1,-1.527161949E-4,1.069013379E-3,-4.581485991E-4
7.209125600E-1,-1.527161949E-4,1.069013379E-3,-4.581485991E-4
7.230401120E-1,-1.527161949E-4,-1.527161949E-4,-4.581485991E-4
7.251676640E-1,1.069013379E-3,2.290742937E-3,7.635809598E-4
7.272951640E-1,-1.527161949E-4,-1.374445739E-3,7.635809598E-4
7.294227160E-1,-1.527161949E-4,-1.527161949E-4,7.635809598E-4
7.315502680E-1,-1.374445739E-3,-1.527161949E-4,7.635809598E-4
7.336777680E-1,-1.374445739E-3,1.069013379E-3,7.635809598E-4
7.358053200E-1,-1.527161949E-4,-1.527161949E-4,-4.581485991E-4
7.379328200E-1,-1.374445739E-3,-1.374445739E-3,-4.581485991E-4
7.400603720E-1,-1.527161949E-4,-1.527161949E-4,7.635809598E-4
7.421879240E-1,-1.374445739E-3,-1.527161949E-4,1.985310577E-3
7.443154240E-1,-1.374445739E-3,-1.527161949E-4,-4.581485991E-4
7.464429760E-1,-1.527161949E-4,1.069013379E-3,-4.581485991E-4
7.485705290E-1,-1.527161949E-4,-1.527161949E-4,-4.581485991E-4
7.506980290E-1,-1.527161949E-4,1.069013379E-3,7.635809598E-4
7.528255810E-1,-1.527161949E-4,-1.527161949E-4,7.635809598E-4
7.549530810E-1,-1.527161949E-4,-1.527161949E-4,-4.581485991E-4
7.570806330E-1,-1.527161949E-4,-1.527161949E-4,-4.581485991E-4
7.592081850E-1,-1.527161949E-4,-1.374445739E-3,-4.581485991E-4
7.613357370E-1,1.069013379E-3,1.069013379E-3,-4.581485991E-4
7.634632370E-1,-1.374445739E-3,-1.527161949E-4,1.985310577E-3
7.655907890E-1,1.069013379E-3,1.069013379E-3,-1.679878100E-3
7.677182890E-1,1.069013379E-3,-1.527161949E-4,7.635809598E-4
7.698458410E-1,-1.527161949E-4,-1.527161949E-4,7.635809598E-4
7.719733930E-1,-1.374445739E-3,-1.527161949E-4,-4.581485991E-4
7.741008930E-1,-1.374445739E-3,-1.374445739E-3,-4.581485991E-4
7.762284450E-1,-1.374445739E-3,-1.374445739E-3,-4.581485991E-4
7.783559970E-1,-1.527161949E-4,-1.527161949E-4,-4.581485991E-4
7.804834970E-1,-1.527161949E-4,-1.374445739E-3,-4.581485991E-4
7.826110490E-1,-1.527161949E-4,1.069013379E-3,-4.581485991E-4
7.847386010E-1,-1.374445739E-3,-1.374445739E-3,7.635809598E-4
7.868661010E-1,1.069013379E-3,1.069013379E-3,-4.581485991E-4
7.889936540E-1,-1.374445739E-3,1.069013379E-3,-1.679878100E-3
7.911211540E-1,-1.374445739E-3,-1.527161949E-4,7.635809598E-4
7.932487060E-1,-1.527161949E-4,-1.527161949E-4,7.635809598E-4
7.953762580E-1,1.069013379E-3,1.069013379E-3,-4.581485991E-4
7.975037580E-1,-1.374445739E-3,1.069013379E-3,-4.581485991E-4
7.996313100E-1,-1.374445739E-3,1.069013379E-3,-4.581485991E-4
8.017588620E-1,-1.527161949E-4,-1.527161949E-4,-1.679878100E-3
8.038863620E-1,-1.527161949E-4,-1.527161949E-4,7.635809598E-4
8.060139140E-1,-1.527161949E-4,-1.527161949E-4,-4.581485991E-4
8.081414660E-1,1.069013379E-3,-1.527161949E-4,-4.581485991E-4
8.102689660E-1,-1.527161949E-4,-1.527161949E-4,-4.581485991E-4
8.123965180E-1,-1.527161949E-4,-1.374445739E-3,-1.679878100E-3
8.145240180E-1,-1.527161949E-4,-1.527161949E-4,-4.581485991E-4
8.166515700E-1,1.069013379E-3,-1.527161949E-4,-4.581485991E-4
8.187791220E-1,-1.527161949E-4,-1.527161949E-4,-4.581485991E-4
8.209066220E-1,-1.527161949E-4,-1.527161949E-4,-4.581485991E-4
8.230341740E-1,-1.374445739E-3,1.069013379E-3,7.635809598E-4
8.251617260E-1,-1.374445739E-3,1.069013379E-3,-4.581485991E-4
8.272892260E-1,-1.527161949E-4,-1.527161949E-4,-4.581485991E-4
8.294167790E-1,-1.527161949E-4,-1.527161949E-4,7.635809598E-4
8.315442790E-1,1.069013379E-3,-1.527161949E-4,7.635809598E-4
8.336718310E-1,-1.527161949E-4,-1.374445739E-3,7.635809598E-4
8.357993830E-1,-1.527161949E-4,1.069013379E-3,1.985310577E-3
8.379268830E-1,1.069013379E-3,-1.527161949E-4,1.985310577E-3
8.400544350E-1,-1.374445739E-3,-1.374445739E-3,7.635809598E-4
8.421819870E-1,-1.527161949E-4,-1.527161949E-4,-4.581485991E-4
8.443094870E-1,-1.527161949E-4,1.069013379E-3,7.635809598E-4
8.464370390E-1,-1.527161949E-4,-1.527161949E-4,7.635809598E-4
8.485645390E-1,-1.527161949E-4,-1.374445739E-3,7.635809598E-4
8.506920910E-1,-1.527161949E-4,-1.527161949E-4,-4.581485991E-4
8.528196430E-1,-1.527161949E-4,-1.527161949E-4,-4.581485991E-4
8.549471950E-1,-1.374445739E-3,1.069013379E-3,7.635809598E-4
8.570746950E-1,-2.596175298E-3,-1.374445739E-3,-4.581485991E-4
8.592022470E-1,1.069013379E-3,-1.527161949E-4,-4.581485991E-4
8.613297470E-1,-1.374445739E-3,1.069013379E-3,-4.581485991E-4
8.634572990E-1,-1.527161949E-4,-1.527161949E-4,-4.581485991E-4
8.655848510E-1,-1.527161949E-4,-1.374445739E-3,-4.581485991E-4
8.677123510E-1,1.069013379E-3,-1.374445739E-3,-4.581485991E-4
8.698399040E-1,1.069013379E-3,-1.374445739E-3,7.635809598E-4
8.719674560E-1,-1.527161949E-4,-1.527161949E-4,-4.581485991E-4
8.740949560E-1,-2.596175298E-3,1.069013379E-3,-4.581485991E-4
8.762225080E-1,-1.374445739E-3,1.069013379E-3,-4.581485991E-4
8.783500600E-1,-1.374445739E-3,-1.527161949E-4,7.635809598E-4
8.804775600E-1,-1.527161949E-4,2.290742937E-3,7.635809598E-4
8.826051120E-1,1.069013379E-3,1.069013379E-3,-4.581485991E-4
8.847326120E-1,-1.527161949E-4,-1.527161949E-4,-1.679878100E-3
8.868601640E-1,-1.527161949E-4,1.069013379E-3,-4.581485991E-4
8.889877160E-1,1.069013379E-3,1.069013379E-3,-4.581485991E-4
8.911152160E-1,-1.527161949E-4,-1.527161949E-4,7.635809598E-4
8.932427680E-1,-1.527161949E-4,-1.527161949E-4,7.635809598E-4
8.953703200E-1,1.069013379E-3,-1.527161949E-4,-4.581485991E-4
8.974978200E-1,1.069013379E-3,-1.527161949E-4,-4.581485991E-4
8.996253720E-1,-1.527161949E-4,-1.527161949E-4,-4.581485991E-4
9.017529240E-1,-1.527161949E-4,1.069013379E-3,-4.581485991E-4
9.038804240E-1,-1.374445739E-3,-1.527161949E-4,-4.581485991E-4
9.060079760E-1,-1.527161949E-4,-1.527161949E-4,7.635809598E-4
9.081354760E-1,-1.527161949E-4,-2.596175298E-3,7.635809598E-4
9.102630290E-1,-1.527161949E-4,-1.374445739E-3,-1.679878100E-3
9.123905810E-1,-1.527161949E-4,-1.374445739E-3,-4.581485991E-4
9.145180810E-1,-1.374445739E-3,2.290742937E-3,7.635809598E-4
9.166456330E-1,-1.527161949E-4,1.069013379E-3,7.635809598E-4
9.187731330E-1,-1.374445739E-3,1.069013379E-3,7.635809598E-4
9.209006850E-1,-1.527161949E-4,-1.527161949E-4,7.635809598E-4
9.230282370E-1,-1.527161949E-4,-1.527161949E-4,-1.679878100E-3
9.251557370E-1,-1.374445739E-3,-1.527161949E-4,-4.581485991E-4
9.272832890E-1,-1.527161949E-4,-1.527161949E-4,7.635809598E-4
9.294108410E-1,-1.374445739E-3,1.069013379E-3,7.635809598E-4
9.315383410E-1,-1.374445739E-3,-1.527161949E-4,-4.581485991E-4
9.336658930E-1,-1.374445739E-3,1.069013379E-3,7.635809598E-4
9.357934450E-1,-1.374445739E-3,-1.527161949E-4,7.635809598E-4
9.379209450E-1,1.069013379E-3,1.069013379E-3,-4.581485991E-4
9.400484970E-1,-1.527161949E-4,-1.374445739E-3,7.635809598E-4
9.421760490E-1,1.069013379E-3,-1.374445739E-3,7.635809598E-4
9.443035490E-1,1.069013379E-3,-1.527161949E-4,-4.581485991E-4
9.464311010E-1,-1.527161949E-4,1.069013379E-3,7.635809598E-4
9.485586010E-1,-1.527161949E-4,-1.527161949E-4,-4.581485991E-4
9.506861540E-1,-1.527161949E-4,-1.527161949E-4,7.635809598E-4
9.528137060E-1,-2.596175298E-3,-1.374445739E-3,7.635809598E-4
9.549412060E-1,1.069013379E-3,-1.527161949E-4,-4.581485991E-4
9.570687580E-1,1.069013379E-3,-2.596175298E-3,-4.581485991E-4
9.591963100E-1,-2.596175298E-3,-1.527161949E-4,-1.679878100E-3
9.613238100E-1,-1.374445739E-3,-1.527161949E-4,-4.581485991E-4
9.634513620E-1,1.069013379E-3,1.069013379E-3,-4.581485991E-4
9.655789140E-1,-1.527161949E-4,-1.374445739E-3,-4.581485991E-4
9.677064140E-1,-1.374445739E-3,-1.374445739E-3,7.635809598E-4
9.698339660E-1,1.069013379E-3,-1.527161949E-4,-1.679878100E-3
9.719614660E-1,-1.527161949E-4,-1.527161949E-4,-4.581485991E-4
9.740890180E-1,-1.374445739E-3,-1.527161949E-4,-4.581485991E-4
9.762165700E-1,-1.527161949E-4,-1.527161949E-4,7.635809598E-4
9.783440700E-1,1.069013379E-3,-1.527161949E-4,-4.581485991E-4
9.804716220E-1,-1.374445739E-3,1.069013379E-3,-4.581485991E-4
9.825991740E-1,1.069013379E-3,1.069013379E-3,7.635809598E-4
9.847266740E-1,-1.527161949E-4,-1.527161949E-4,7.635809598E-4
9.868542260E-1,-1.527161949E-4,-1.527161949E-4,-4.581485991E-4
9.889817260E-1,-1.527161949E-4,-1.527161949E-4,-4.581485991E-4
9.911092790E-1,-1.374445739E-3,-1.374445739E-3,1.985310577E-3
9.932368310E-1,-1.527161949E-4,-1.527161949E-4,7.635809598E-4
9.953643310E-1,-1.374445739E-3,-1.374445739E-3,-4.581485991E-4
9.974918830E-1,-1.527161949E-4,-1.527161949E-4,7.635809598E-4
9.996194350E-1,-1.374445739E-3,-1.374445739E-3,-4.581485991E-4
1.001746935E0,1.069013379E-3,-1.527161949E-4,-4.581485991E-4
1.003874487E0,-1.374445739E-3,1.069013379E-3,7.635809598E-4
1.006002039E0,-1.527161949E-4,1.069013379E-3,7.635809598E-4
1.008129539E0,-1.527161949E-4,1.069013379E-3,-4.581485991E-4
1.010257091E0,-1.527161949E-4,1.069013379E-3,-4.581485991E-4
1.012384643E0,1.069013379E-3,-1.527161949E-4,-4.581485991E-4
1.014512143E0,1.069013379E-3,1.069013379E-3,7.635809598E-4
1.016639695E0,1.069013379E-3,1.069013379E-3,7.635809598E-4
1.018767195E0,-1.527161949E-4,-1.527161949E-4,-4.581485991E-4
1.020894747E0,1.069013379E-3,-1.527161949E-4,-1.679878100E-3
1.023022299E0,1.069013379E-3,1.069013379E-3,-4.581485991E-4
1.025149799E0,-1.527161949E-4,1.069013379E-3,-4.581485991E-4
1.027277351E0,-1.527161949E-4,-1.527161949E-4,-4.581485991E-4
1.029404851E0,-1.527161949E-4,-1.527161949E-4,-4.581485991E-4
1.031532404E0,-1.527161949E-4,-1.527161949E-4,-4.581485991E-4
1.033659956E0,1.069013379E-3,1.069013379E-3,1.985310577E-3
1.035787456E0,-1.527161949E-4,-1.527161949E-4,7.635809598E-4
1.037915008E0,-1.527161949E-4,-1.527161949E-4,-1.679878100E-3
1.040042560E0,1.069013379E-3,-1.527161949E-4,-4.581485991E-4
1.042170112E0,-1.374445739E-3,-1.527161949E-4,7.635809598E-4
1.044297612E0,-1.374445739E-3,1.069013379E-3,1.985310577E-3
1.046425164E0,-1.374445739E-3,-1.527161949E-4,-4.581485991E-4
1.048552664E0,-1.527161949E-4,-1.527161949E-4,7.635809598E-4
1.050680216E0,-1.527161949E-4,-1.374445739E-3,7.635809598E-4
1.052807716E0,1.069013379E-3,-1.374445739E-3,7.635809598E-4
1.054935268E0,-1.527161949E-4,-1.527161949E-4,-4.581485991E-4
1.057062820E0,-1.374445739E-3,2.290742937E-3,7.635809598E-4
1.059190320E0,1.069013379E-3,1.069013379E-3,7.635809598E-4
1.061317872E0,-1.527161949E-4,-1.527161949E-4,-4.581485991E-4
1.063445424E0,-1.374445739E-3,-1.527161949E-4,7.635809598E-4
1.065572924E0,-1.527161949E-4,1.069013379E-3,-4.581485991E-4
1.067700476E0,-1.527161949E-4,-1.527161949E-4,-1.679878100E-3
1.069828029E0,1.069013379E-3,1.069013379E-3,7.635809598E-4
1.071955529E0,2.290742937E-3,-1.527161949E-4,-4.581485991E-4
1.074083081E0,-1.527161949E-4,-1.527161949E-4,-4.581485991E-4
1.076210581E0,1.069013379E-3,-1.374445739E-3,7.635809598E-4
1.078338133E0,-1.527161949E-4,-1.527161949E-4,-4.581485991E-4
1.080465685E0,-1.527161949E-4,1.069013379E-3,7.635809598E-4
1.082593185E0,-1.374445739E-3,-1.527161949E-4,-4.581485991E-4
1.084720737E0,-1.374445739E-3,-1.374445739E-3,-1.679878100E-3
1.086848289E0,1.069013379E-3,-1.527161949E-4,7.635809598E-4
1.088975789E0,1.069013379E-3,-1.527161949E-4,-4.581485991E-4
1.091103341E0,-1.374445739E-3,-1.374445739E-3,7.635809598E-4
1.093230893E0,1.069013379E-3,-1.374445739E-3,-1.679878100E-3
1.095358393E0,-1.527161949E-4,-1.527161949E-4,-4.581485991E-4
1.097485945E0,-1.527161949E-4,1.069013379E-3,7.635809598E-4
1.099613445E0,-1.527161949E-4,1.069013379E-3,-4.581485991E-4
1.101740997E0,-1.527161949E-4,1.069013379E-3,7.635809598E-4
1.103868549E0,1.069013379E-3,-1.527161949E-4,-4.581485991E-4
1.105996049E0,-1.527161949E-4,-1.374445739E-3,7.635809598E-4
1.108123601E0,-1.527161949E-4,-1.527161949E-4,-4.581485991E-4
1.110251154E0,1.069013379E-3,-1.374445739E-3,-4.581485991E-4
1.112378654E0,-1.527161949E-4,-1.527161949E-4,-4.581485991E-4
1.114506206E0,1.069013379E-3,-1.527161949E-4,-4.581485991E-4
1.116633758E0,1.069013379E-3,-1.527161949E-4,-4.581485991E-4
1.118761258E0,-1.527161949E-4,-1.527161949E-4,-4.581485991E-4
1.120888810E0,-1.374445739E-3,-1.527161949E-4,-4.581485991E-4
1.123016310E0,-1.374445739E-3,-1.527161949E-4,-4.581485991E-4
1.125143862E0,1.069013379E-3,-1.527161949E-4,7.635809598E-4
1.127271414E0,-1.374445739E-3,1.069013379E-3,-4.581485991E-4
1.129398914E0,-1.374445739E-3,1.069013379E-3,1.985310577E-3
1.131526466E0,-1.374445739E-3,1.069013379E-3,7.635809598E-4
1.133654018E0,-1.527161949E-4,-1.374445739E-3,-4.581485991E-4
1.135781518E0,-1.527161949E-4,-1.527161949E-4,-4.581485991E-4
1.137909070E0,1.069013379E-3,-1.527161949E-4,-1.679878100E-3
1.140036570E0,-1.527161949E-4,-1.374445739E-3,-4.581485991E-4
1.142164122E0,-2.596175298E-3,-1.527161949E-4,7.635809598E-4
1.144291674E0,-1.374445739E-3,1.069013379E-3,7.635809598E-4
1.146419174E0,-1.527161949E-4,-1.527161949E-4,-4.581485991E-4
1.148546726E0,-1.527161949E-4,-1.374445739E-3,-4.581485991E-4
1.150674279E0,-1.527161949E-4,-1.527161949E-4,-4.581485991E-4
1.152801779E0,-1.527161949E-4,-1.527161949E-4,-4.581485991E-4
1.154929331E0,-1.527161949E-4,-1.527161949E-4,7.635809598E-4
1.157056883E0,-1.527161949E-4,1.069013379E-3,-4.581485991E-4
1.159184383E0,-1.374445739E-3,1.069013379E-3,-4.581485991E-4
1.161311935E0,-1.527161949E-4,-1.527161949E-4,-4.581485991E-4
1.163439435E0,-1.527161949E-4,2.290742937E-3,7.635809598E-4
1.165566987E0,-1.527161949E-4,1.069013379E-3,7.635809598E-4
1.167694539E0,-1.527161949E-4,-1.527161949E-4,-4.581485991E-4
1.169822039E0,1.069013379E-3,1.069013379E-3,-4.581485991E-4
1.171949591E0,-1.527161949E-4,-1.527161949E-4,-4.581485991E-4
1.174077143E0,-1.527161949E-4,-1.527161949E-4,-4.581485991E-4
1.176204643E0,-1.527161949E-4,-1.527161949E-4,7.635809598E-4
1.178332195E0,-1.527161949E-4,-1.527161949E-4,-4.581485991E-4
1.180459747E0,-1.374445739E-3,-1.527161949E-4,-4.581485991E-4
1.182587247E0,-1.374445739E-3,-1.527161949E-4,7.635809598E-4
1.184714799E0,-1.374445739E-3,1.069013379E-3,-4.581485991E-4
1.186842299E0,1.069013379E-3,-1.374445739E-3,-1.679878100E-3
1.188969851E0,-1.527161949E-4,1.069013379E-3,7.635809598E-4
1.191097404E0,-1.527161949E-4,-1.527161949E-4,7.635809598E-4
1.193224904E0,-1.527161949E-4,2.290742937E-3,7.635809598E-4
1.195352456E0,-1.527161949E-4,-1.374445739E-3,-4.581485991E-4
1.197480008E0,-1.374445739E-3,1.069013379E-3,-4.581485991E-4
1.199607508E0,-1.527161949E-4,1.069013379E-3,7.635809598E-4
1.201735060E0,-1.374445739E-3,-1.374445739E-3,-4.581485991E-4
1.203862560E0,-1.527161949E-4,-1.527161949E-4,7.635809598E-4
1.205990112E0,2.290742937E-3,-1.374445739E-3,-4.581485991E-4
1.208117664E0,1.069013379E-3,1.069013379E-3,-4.581485991E-4
1.210245216E0,-1.527161949E-4,1.069013379E-3,7.635809598E-4
1.212372716E0,-1.374445739E-3,-1.374445739E-3,7.635809598E-4
1.214500268E0,-1.527161949E-4,1.069013379E-3,7.635809598E-4
1.216627768E0,-1.374445739E-3,-1.527161949E-4,-4.581485991E-4
1.218755320E0,-1.374445739E-3,1.069013379E-3,-4.581485991E-4
1.220882872E0,-1.374445739E-3,1.069013379E-3,-4.581485991E-4
1.223010372E0,-1.527161949E-4,-1.527161949E-4,7.635809598E-4
1.225137924E0,-1.374445739E-3,1.069013379E-3,-4.581485991E-4
1.227265424E0,1.069013379E-3,-1.374445739E-3,-4.581485991E-4
1.229392976E0,-1.527161949E-4,-1.527161949E-4,-4.581485991E-4
1.231520529E0,-1.374445739E-3,-1.374445739E-3,-4.581485991E-4
1.233648029E0,-1.527161949E-4,1.069013379E-3,7.635809598E-4
1.235775581E0,-1.527161949E-4,-1.374445739E-3,7.635809598E-4
1.237903133E0,-1.527161949E-4,-1.374445739E-3,-4.581485991E-4
1.240030633E0,1.069013379E-3,-1.527161949E-4,-4.581485991E-4
1.242158185E0,-1.527161949E-4,-1.527161949E-4,-4.581485991E-4
1.244285685E0,-1.527161949E-4,1.069013379E-3,-4.581485991E-4
1.246413237E0,-1.374445739E-3,-1.527161949E-4,-4.581485991E-4
1.248540789E0,1.069013379E-3,-1.527161949E-4,-1.679878100E-3
1.250668289E0,-1.374445739E-3,-1.374445739E-3,-4.581485991E-4
1.252795841E0,-1.374445739E-3,1.069013379E-3,1.985310577E-3
1.254923393E0,-1.527161949E-4,-1.527161949E-4,7.635809598E-4
1.257050893E0,-1.374445739E-3,-1.527161949E-4,-4.581485991E-4
1.259178445E0,-1.374445739E-3,-1.527161949E-4,-4.581485991E-4
1.261305997E0,-1.374445739E-3,-1.527161949E-4,7.635809598E-4
1.263433497E0,1.069013379E-3,2.290742937E-3,-4.581485991E-4
1.265561049E0,1.069013379E-3,-1.374445739E-3,-4.581485991E-4
1.267688549E0,1.069013379E-3,1.069013379E-3,-4.581485991E-4
1.269816101E0,-1.374445739E-3,1.069013379E-3,-4.581485991E-4
1.271943654E0,-1.527161949E-4,-1.527161949E-4,7.635809598E-4
1.274071154E0,1.069013379E-3,-1.527161949E-4,-4.581485991E-4
1.276198706E0,-1.527161949E-4,1.069013379E-3,7.635809598E-4
1.278326258E0,1.069013379E-3,1.069013379E-3,1.985310577E-3
1.280453758E0,1.069013379E-3,1.069013379E-3,7.635809598E-4
1.282581310E0,2.290742937E-3,-1.374445739E-3,7.635809598E-4
1.284708862E0,-1.374445739E-3,-1.527161949E-4,7.635809598E-4
1.286836362E0,-1.527161949E-4,-2.596175298E-3,-1.679878100E-3
1.288963914E0,-1.374445739E-3,1.069013379E-3,7.635809598E-4
1.291091414E0,-1.374445739E-3,2.290742937E-3,7.635809598E-4
1.293218966E0,-1.374445739E-3,2.290742937E-3,7.635809598E-4
1.295346518E0,-1.527161949E-4,1.069013379E-3,-4.581485991E-4
1.297474018E0,-1.527161949E-4,-1.527161949E-4,7.635809598E-4
1.299601570E0,-1.527161949E-4,-1.527161949E-4,-1.679878100E-3
1.301729122E0,-1.527161949E-4,1.069013379E-3,-1.679878100E-3
1.303856622E0,-1.527161949E-4,1.069013379E-3,-4.581485991E-4
1.305984174E0,-1.527161949E-4,1.069013379E-3,7.635809598E-4
1.308111674E0,-1.527161949E-4,-1.374445739E-3,7.635809598E-4
1.310239226E0,-1.374445739E-3,-1.527161949E-4,7.635809598E-4
1.312366779E0,-1.527161949E-4,1.069013379E-3,-4.581485991E-4
1.314494279E0,-1.374445739E-3,1.069013379E-3,-4.581485991E-4
1.316621831E0,-1.374445739E-3,-1.374445739E-3,-4.581485991E-4
1.318749383E0,-1.527161949E-4,1.069013379E-3,7.635809598E-4
1.320876883E0,-2.596175298E-3,1.069013379E-3,-4.581485991E-4
1.323004435E0,-1.527161949E-4,-1.527161949E-4,-1.679878100E-3
1.325131987E0,-1.374445739E-3,-1.527161949E-4,7.635809598E-4
1.327259487E0,1.069013379E-3,-1.527161949E-4,-4.581485991E-4
1.329387039E0,-1.374445739E-3,1.069013379E-3,-4.581485991E-4
1.331514539E0,1.069013379E-3,-1.374445739E-3,-4.581485991E-4
1.333642091E0,-1.374445739E-3,1.069013379E-3,-4.581485991E-4
1.335769643E0,-1.527161949E-4,-1.374445739E-3,-4.581485991E-4
1.337897143E0,-1.527161949E-4,-1.527161949E-4,7.635809598E-4
1.340024695E0,-1.527161949E-4,1.069013379E-3,-4.581485991E-4
1.342152247E0,1.069013379E-3,-1.374445739E-3,-4.581485991E-4
1.344279747E0,-1.374445739E-3,-1.527161949E-4,-4.581485991E-4
1.346407299E0,-1.374445739E-3,-1.374445739E-3,-4.581485991E-4
1.348534799E0,-1.527161949E-4,1.069013379E-3,-4.581485991E-4
1.350662351E0,-1.374445739E-3,2.290742937E-3,-4.581485991E-4
1.352789904E0,1.069013379E-3,2.290742937E-3,-4.581485991E-4
1.354917404E0,1.069013379E-3,1.069013379E-3,-1.679878100E-3
1.357044956E0,-1.527161949E-4,-1.527161949E-4,-4.581485991E-4
1.359172508E0,1.069013379E-3,-1.527161949E-4,-4.581485991E-4
1.361300008E0,-1.527161949E-4,1.069013379E-3,7.635809598E-4
1.363427560E0,-1.527161949E-4,1.069013379E-3,-4.581485991E-4
1.365555060E0,-1.374445739E-3,-1.374445739E-3,-1.679878100E-3
1.367682612E0,-2.596175298E-3,-1.527161949E-4,-4.581485991E-4
1.369810164E0,-1.527161949E-4,-1.374445739E-3,7.635809598E-4
1.371937664E0,-1.527161949E-4,-1.527161949E-4,7.635809598E-4
1.374065216E0,-1.527161949E-4,-1.527161949E-4,7.635809598E-4
1.376192768E0,-1.374445739E-3,-1.527161949E-4,-4.581485991E-4
1.378320268E0,-1.527161949E-4,-1.527161949E-4,7.635809598E-4
1.380447820E0,-1.527161949E-4,-1.527161949E-4,-4.581485991E-4
1.382575372E0,-1.527161949E-4,-1.527161949E-4,-4.581485991E-4
1.384702872E0,-1.527161949E-4,-1.374445739E-3,-4.581485991E-4
1.386830424E0,1.069013379E-3,-1.374445739E-3,-4.581485991E-4
1.388957924E0,-1.527161949E-4,-1.527161949E-4,-4.581485991E-4
1.391085476E0,1.069013379E-3,-1.527161949E-4,-4.581485991E-4
1.393213029E0,-1.374445739E-3,1.069013379E-3,-1.679878100E-3
1.395340529E0,-1.527161949E-4,1.069013379E-3,-1.679878100E-3
1.397468081E0,-1.374445739E-3,2.290742937E-3,7.635809598E-4
1.399595633E0,-1.374445739E-3,2.290742937E-3,7.635809598E-4
1.401723133E0,-1.527161949E-4,-1.527161949E-4,-4.581485991E-4
1.403850685E0,1.069013379E-3,-1.527161949E-4,1.985310577E-3
1.405978185E0,1.069013379E-3,-1.527161949E-4,-1.679878100E-3
1.408105737E0,-1.374445739E-3,1.069013379E-3,7.635809598E-4
1.410233289E0,-1.527161949E-4,-1.527161949E-4,7.635809598E-4
1.412360789E0,-1.527161949E-4,1.069013379E-3,-4.581485991E-4
1.414488341E0,-1.527161949E-4,-1.527161949E-4,7.635809598E-4
1.416615841E0,-1.374445739E-3,-1.527161949E-4,-4.581485991E-4
1.418743393E0,-1.527161949E-4,-1.527161949E-4,-4.581485991E-4
1.420870945E0,-1.527161949E-4,1.069013379E-3,-4.581485991E-4
1.422998445E0,-1.527161949E-4,-1.527161949E-4,7.635809598E-4
1.425125997E0,-1.374445739E-3,-1.527161949E-4,-1.679878100E-3
1.427253549E0,-2.596175298E-3,-1.527161949E-4,-4.581485991E-4
1.429381049E0,-1.527161949E-4,-1.527161949E-4,-4.581485991E-4
1.431508601E0,-1.374445739E-3,-1.527161949E-4,-4.581485991E-4
1.433636154E0,-1.527161949E-4,-1.527161949E-4,-4.581485991E-4
1.435763654E0,-1.527161949E-4,1.069013379E-3,-4.581485991E-4
1.437891206E0,-1.527161949E-4,-1.527161949E-4,-4.581485991E-4
1.440018706E0,-1.374445739E-3,1.069013379E-3,7.635809598E-4
1.442146258E0,-1.527161949E-4,-1.527161949E-4,7.635809598E-4
1.444273810E0,-1.527161949E-4,-1.527161949E-4,-4.581485991E-4
1.446401310E0,2.290742937E-3,-1.374445739E-3,7.635809598E-4
1.448528862E0,-1.527161949E-4,1.069013379E-3,-4.581485991E-4
1.450656414E0,-1.527161949E-4,1.069013379E-3,7.635809598E-4
1.452783914E0,-1.527161949E-4,1.069013379E-3,-4.581485991E-4
1.454911466E0,-1.527161949E-4,-1.374445739E-3,7.635809598E-4
1.457038966E0,-1.374445739E-3,-1.527161949E-4,-4.581485991E-4
1.459166518E0,-1.527161949E-4,-1.527161949E-4,7.635809598E-4
1.461294070E0,1.069013379E-3,-1.374445739E-3,-4.581485991E-4
1.463421570E0,-1.527161949E-4,-1.374445739E-3,-4.581485991E-4
1.465549122E0,-1.374445739E-3,-1.374445739E-3,-4.581485991E-4
1.467676674E0,-1.527161949E-4,-1.374445739E-3,-4.581485991E-4
1.469804174E0,-1.527161949E-4,1.069013379E-3,-4.581485991E-4
1.471931726E0,-1.374445739E-3,-1.527161949E-4,-4.581485991E-4
1.474059279E0,-1.374445739E-3,1.069013379E-3,1.985310577E-3
1.476186779E0,-1.374445739E-3,-1.374445739E-3,7.635809598E-4
1.478314331E0,-1.527161949E-4,-1.527161949E-4,-4.581485991E-4
1.480441831E0,-1.527161949E-4,-1.527161949E-4,7.635809598E-4
1.482569383E0,-1.527161949E-4,1.069013379E-3,1.985310577E-3
1.484696935E0,-1.527161949E-4,-1.374445739E-3,7.635809598E-4
1.486824435E0,1.069013379E-3,-1.527161949E-4,-4.581485991E-4
1.488951987E0,-1.527161949E-4,-1.527161949E-4,-4.581485991E-4
1.491079487E0,-1.374445739E-3,-1.527161949E-4,-4.581485991E-4
1.493207039E0,1.069013379E-3,1.069013379E-3,-4.581485991E-4
1.495334591E0,1.069013379E-3,-1.527161949E-4,-4.581485991E-4
1.497462143E0,-1.374445739E-3,1.069013379E-3,7.635809598E-4
1.499589643E0,-1.527161949E-4,-1.527161949E-4,-4.581485991E-4
1.501717195E0,1.069013379E-3,1.069013379E-3,-4.581485991E-4
1.503844747E0,1.069013379E-3,-1.527161949E-4,-1.679878100E-3
1.505972247E0,-2.596175298E-3,-1.527161949E-4,-4.581485991E-4
1.508099799E0,-1.527161949E-4,-1.527161949E-4,-4.581485991E-4
1.510227299E0,-1.527161949E-4,-1.527161949E-4,-1.679878100E-3
1.512354851E0,-1.527161949E-4,-1.527161949E-4,-4.581485991E-4
1.514482404E0,-1.527161949E-4,-1.527161949E-4,-4.581485991E-4
1.516609904E0,-1.527161949E-4,1.069013379E-3,7.635809598E-4
1.518737456E0,-1.374445739E-3,1.069013379E-3,-4.581485991E-4
1.520865008E0,-1.374445739E-3,-1.527161949E-4,7.635809598E-4
1.522992508E0,-1.374445739E-3,-1.374445739E-3,-4.581485991E-4
1.525120060E0,-1.374445739E-3,-1.527161949E-4,-4.581485991E-4
1.527247560E0,1.069013379E-3,1.069013379E-3,7.635809598E-4
1.529375112E0,-1.527161949E-4,-1.527161949E-4,1.985310577E-3
1.531502664E0,1.069013379E-3,-1.374445739E-3,-4.581485991E-4
1.533630164E0,-1.374445739E-3,1.069013379E-3,7.635809598E-4
1.535757716E0,-1.527161949E-4,-1.527161949E-4,-4.581485991E-4
1.537885268E0,-1.527161949E-4,-1.374445739E-3,7.635809598E-4
1.540012768E0,-1.374445739E-3,-1.374445739E-3,-4.581485991E-4
1.542140320E0,-1.374445739E-3,-1.527161949E-4,-4.581485991E-4
1.544267820E0,-1.527161949E-4,2.290742937E-3,-4.581485991E-4
1.546395372E0,1.069013379E-3,-1.527161949E-4,-4.581485991E-4
1.548522924E0,-1.527161949E-4,1.069013379E-3,-4.581485991E-4
1.550650424E0,-1.374445739E-3,-1.527161949E-4,-1.679878100E-3
1.552777976E0,-1.527161949E-4,-2.596175298E-3,7.635809598E-4
1.554905476E0,-1.527161949E-4,-1.527161949E-4,-4.581485991E-4
1.557033029E0,-2.596175298E-3,-1.374445739E-3,-2.901607659E-3
1.559160581E0,-1.374445739E-3,-1.374445739E-3,7.635809598E-4
1.561288133E0,-1.527161949E-4,-1.527161949E-4,7.635809598E-4
1.563415633E0,-1.527161949E-4,-1.527161949E-4,-4.581485991E-4
1.565543185E0,-1.527161949E-4,-1.374445739E-3,-4.581485991E-4
1.567670685E0,-1.527161949E-4,1.069013379E-3,7.635809598E-4
1.569798237E0,-1.527161949E-4,1.069013379E-3,-4.581485991E-4
1.571925737E0,-1.527161949E-4,1.069013379E-3,-2.901607659E-3
1.574053289E0,-1.527161949E-4,-1.527161949E-4,-4.581485991E-4
1.576180841E0,-1.527161949E-4,-1.527161949E-4,7.635809598E-4
1.578308393E0,-1.374445739E-3,1.069013379E-3,7.635809598E-4
1.580435893E0,-1.527161949E-4,1.069013379E-3,7.635809598E-4
1.582563445E0,-1.527161949E-4,1.069013379E-3,-1.679878100E-3
1.584690945E0,-1.527161949E-4,-1.374445739E-3,-4.581485991E-4
1.586818497E0,1.069013379E-3,-1.527161949E-4,-4.581485991E-4
1.588946049E0,1.069013379E-3,1.069013379E-3,-4.581485991E-4
1.591073549E0,-1.527161949E-4,-1.527161949E-4,7.635809598E-4
1.593201101E0,-1.527161949E-4,1.069013379E-3,-4.581485991E-4
1.595328654E0,-1.374445739E-3,-1.527161949E-4,-4.581485991E-4
1.597456154E0,1.069013379E-3,-1.374445739E-3,-4.581485991E-4
1.599583706E0,1.069013379E-3,1.069013379E-3,-4.581485991E-4
1.601711206E0,1.069013379E-3,-1.527161949E-4,7.635809598E-4
1.603838758E0,-1.527161949E-4,-1.374445739E-3,7.635809598E-4
1.605966310E0,-1.527161949E-4,-1.527161949E-4,7.635809598E-4
1.608093810E0,1.069013379E-3,1.069013379E-3,7.635809598E-4
1.610221362E0,-1.527161949E-4,-1.527161949E-4,7.635809598E-4
1.612348862E0,1.069013379E-3,-1.374445739E-3,-4.581485991E-4
1.614476414E0,-1.374445739E-3,-1.527161949E-4,7.635809598E-4
1.616603966E0,-2.596175298E-3,1.069013379E-3,7.635809598E-4
1.618731466E0,-1.527161949E-4,1.069013379E-3,7.635809598E-4
1.620859018E0,-1.374445739E-3,-1.527161949E-4,-4.581485991E-4
1.622986570E0,-1.527161949E-4,1.069013379E-3,7.635809598E-4
1.625114070E0,-1.527161949E-4,1.069013379E-3,-4.581485991E-4
1.627241622E0,2.290742937E-3,-1.527161949E-4,-4.581485991E-4
1.629369174E0,-1.374445739E-3,-1.527161949E-4,7.635809598E-4
1.631496674E0,-1.374445739E-3,-1.527161949E-4,7.635809598E-4
1.633624226E0,-1.527161949E-4,-1.527161949E-4,-4.581485991E-4
1.635751726E0,-2.596175298E-3,1.069013379E-3,1.985310577E-3
1.637879279E0,-1.527161949E-4,1.069013379E-3,-4.581485991E-4
1.640006831E0,1.069013379E-3,1.069013379E-3,7.635809598E-4
1.642134331E0,-1.527161949E-4,-1.527161949E-4,-4.581485991E-4
1.644261883E0,-1.527161949E-4,1.069013379E-3,7.635809598E-4
1.646389383E0,-1.374445739E-3,-1.527161949E-4,-4.581485991E-4
1.648516935E0,1.069013379E-3,-1.527161949E-4,-4.581485991E-4
1.650644487E0,1.069013379E-3,-2.596175298E-3,7.635809598E-4
1.652771987E0,-1.527161949E-4,-1.527161949E-4,7.635809598E-4
1.654899539E0,-1.527161949E-4,-1.527161949E-4,-4.581485991E-4
1.657027091E0,1.069013379E-3,-1.527161949E-4,-4.581485991E-4
1.659154591E0,-1.527161949E-4,-1.527161949E-4,-4.581485991E-4
1.661282143E0,-1.374445739E-3,-1.374445739E-3,-4.581485991E-4
1.663409695E0,-1.527161949E-4,1.069013379E-3,-1.679878100E-3
1.665537195E0,-1.374445739E-3,-1.374445739E-3,-1.679878100E-3
1.667664747E0,1.069013379E-3,1.069013379E-3,-4.581485991E-4
1.669792247E0,-1.527161949E-4,-1.527161949E-4,-1.679878100E-3
1.671919799E0,-1.527161949E-4,-1.527161949E-4,-4.581485991E-4
1.674047351E0,-1.527161949E-4,-1.527161949E-4,-4.581485991E-4
1.676174851E0,-2.596175298E-3,-1.527161949E-4,-4.581485991E-4
1.678302404E0,-1.374445739E-3,-1.527161949E-4,7.635809598E-4
1.680429956E0,-1.527161949E-4,-1.527161949E-4,-4.581485991E-4
1.682557456E0,-1.527161949E-4,-1.527161949E-4,-4.581485991E-4
1.684685008E0,-1.527161949E-4,-1.527161949E-4,-4.581485991E-4
1.686812508E0,-1.527161949E-4,1.069013379E-3,-1.679878100E-3
1.688940060E0,-1.527161949E-4,-1.527161949E-4,-4.581485991E-4
1.691067612E0,1.069013379E-3,1.069013379E-3,7.635809598E-4
1.693195112E0,1.069013379E-3,-1.527161949E-4,-1.679878100E-3
1.695322664E0,-1.527161949E-4,1.069013379E-3,7.635809598E-4
1.697450216E0,-1.374445739E-3,-1.527161949E-4,-4.581485991E-4
1.699577716E0,-1.374445739E-3,-1.374445739E-3,7.635809598E-4
1.701705268E0,-1.527161949E-4,-1.374445739E-3,-4.581485991E-4
1.703832768E0,-1.374445739E-3,-1.527161949E-4,1.985310577E-3
1.705960320E0,-1.527161949E-4,-1.527161949E-4,-4.581485991E-4
1.708087872E0,-1.527161949E-4,-1.374445739E-3,-4.581485991E-4
1.710215372E0,-1.374445739E-3,1.069013379E-3,7.635809598E-4
1.712342924E0,-1.374445739E-3,-1.527161949E-4,-4.581485991E-4
1.714470476E0,-1.527161949E-4,-1.527161949E-4,1.985310577E-3
1.716597976E0,2.290742937E-3,-1.374445739E-3,-4.581485991E-4
1.718725529E0,1.069013379E-3,-1.374445739E-3,-4.581485991E-4
1.720853029E0,1.069013379E-3,-1.527161949E-4,7.635809598E-4
1.722980581E0,-1.527161949E-4,-1.527161949E-4,-4.581485991E-4
1.725108133E0,-1.374445739E-3,2.290742937E-3,7.635809598E-4
1.727235633E0,-1.527161949E-4,-1.527161949E-4,-4.581485991E-4
1.729363185E0,-1.527161949E-4,1.069013379E-3,-4.581485991E-4
1.731490737E0,2.290742937E-3,-1.374445739E-3,-4.581485991E-4
1.733618237E0,-1.527161949E-4,-1.527161949E-4,-4.581485991E-4
1.735745789E0,-1.527161949E-4,-1.527161949E-4,-4.581485991E-4
1.737873289E0,-2.596175298E-3,1.069013379E-3,7.635809598E-4
1.740000841E0,1.069013379E-3,-1.374445739E-3,-4.581485991E-4
1.742128393E0,1.069013379E-3,-1.527161949E-4,-4.581485991E-4
1.744255893E0,-1.527161949E-4,-1.527161949E-4,7.635809598E-4
1.746383445E0,1.069013379E-3,1.069013379E-3,7.635809598E-4
1.748510997E0,-1.527161949E-4,-1.527161949E-4,-1.679878100E-3
1.750638497E0,-1.527161949E-4,-1.374445739E-3,-4.581485991E-4
1.752766049E0,-1.527161949E-4,1.069013379E-3,7.635809598E-4
1.754893549E0,-1.527161949E-4,-1.527161949E-4,-4.581485991E-4
1.757021101E0,-1.527161949E-4,-1.527161949E-4,7.635809598E-4
1.759148654E0,1.069013379E-3,-1.374445739E-3,-4.581485991E-4
1.761276206E0,1.069013379E-3,-1.374445739E-3,-4.581485991E-4
1.763403706E0,-1.527161949E-4,-1.527161949E-4,7.635809598E-4
1.765531258E0,-1.527161949E-4,-1.527161949E-4,-1.679878100E-3
1.767658758E0,-1.527161949E-4,-1.527161949E-4,-4.581485991E-4
1.769786310E0,-1.527161949E-4,1.069013379E-3,7.635809598E-4
1.771913810E0,-1.527161949E-4,-1.527161949E-4,7.635809598E-4
1.774041362E0,-1.527161949E-4,-1.527161949E-4,-4.581485991E-4
1.776168914E0,-1.527161949E-4,1.069013379E-3,-4.581485991E-4
1.778296414E0,-2.596175298E-3,-1.527161949E-4,-4.581485991E-4
1.780423966E0,-1.374445739E-3,1.069013379E-3,7.635809598E-4
1.782551518E0,-1.527161949E-4,-1.527161949E-4,-4.581485991E-4
1.784679018E0,-1.374445739E-3,1.069013379E-3,7.635809598E-4
1.786806570E0,-1.374445739E-3,1.069013379E-3,7.635809598E-4
1.788934122E0,-1.527161949E-4,1.069013379E-3,-4.581485991E-4
1.791061622E0,-1.374445739E-3,-1.527161949E-4,-4.581485991E-4
1.793189174E0,-1.527161949E-4,1.069013379E-3,-1.679878100E-3
1.795316674E0,-1.374445739E-3,-1.527161949E-4,7.635809598E-4
1.797444226E0,1.069013379E-3,-1.527161949E-4,-4.581485991E-4
1.799571779E0,-1.374445739E-3,-1.527161949E-4,-1.679878100E-3
1.801699279E0,-1.374445739E-3,-1.527161949E-4,7.635809598E-4
1.803826831E0,1.069013379E-3,-1.527161949E-4,-4.581485991E-4
1.805954383E0,1.069013379E-3,-1.527161949E-4,7.635809598E-4
1.808081883E0,-1.527161949E-4,-1.527161949E-4,-1.679878100E-3
1.810209435E0,-1.527161949E-4,-1.527161949E-4,-4.581485991E-4
1.812336987E0,1.069013379E-3,1.069013379E-3,-4.581485991E-4
1.814464487E0,1.069013379E-3,1.069013379E-3,7.635809598E-4
1.816592039E0,1.069013379E-3,-1.374445739E-3,-1.679878100E-3
1.818719539E0,-1.374445739E-3,1.069013379E-3,-4.581485991E-4
1.820847091E0,-1.527161949E-4,-1.374445739E-3,7.635809598E-4
1.822974591E0,-1.527161949E-4,1.069013379E-3,-1.679878100E-3
1.825102143E0,-1.527161949E-4,-1.374445739E-3,-4.581485991E-4
1.827229695E0,-1.374445739E-3,1.069013379E-3,-4.581485991E-4
1.829357195E0,-1.374445739E-3,1.069013379E-3,-4.581485991E-4
1.831484747E0,-1.374445739E-3,1.069013379E-3,7.635809598E-4
1.833612299E0,-1.527161949E-4,-1.527161949E-4,-4.581485991E-4
1.835739799E0,-1.527161949E-4,1.069013379E-3,-4.581485991E-4
1.837867351E0,-1.527161949E-4,-1.527161949E-4,7.635809598E-4
1.839994904E0,-1.527161949E-4,-1.527161949E-4,-4.581485991E-4
1.842122404E0,-1.374445739E-3,-1.527161949E-4,-4.581485991E-4
1.844249956E0,1.069013379E-3,1.069013379E-3,7.635809598E-4
1.846377508E0,-1.527161949E-4,-1.527161949E-4,7.635809598E-4
1.848505008E0,2.290742937E-3,-2.596175298E-3,-4.581485991E-4
1.850632560E0,-1.374445739E-3,-1.527161949E-4,7.635809598E-4
1.852760060E0,-1.527161949E-4,-1.527161949E-4,-4.581485991E-4
1.854887612E0,-1.374445739E-3,-1.527161949E-4,7.635809598E-4
1.857015164E0,-1.527161949E-4,-1.527161949E-4,7.635809598E-4
1.859142664E0,-1.527161949E-4,-1.527161949E-4,7.635809598E-4
1.861270216E0,-1.527161949E-4,-1.527161949E-4,-1.679878100E-3
1.863397716E0,-1.374445739E-3,-1.527161949E-4,-4.581485991E-4
1.865525268E0,-1.527161949E-4,-1.527161949E-4,7.635809598E-4
1.867652820E0,-1.527161949E-4,1.069013379E-3,-1.679878100E-3
1.869780320E0,1.069013379E-3,1.069013379E-3,-4.581485991E-4
1.871907872E0,-1.527161949E-4,-1.527161949E-4,7.635809598E-4
1.874035372E0,-1.527161949E-4,-1.374445739E-3,7.635809598E-4
1.876162924E0,-1.527161949E-4,-1.527161949E-4,-1.679878100E-3
1.878290476E0,1.069013379E-3,-1.527161949E-4,-4.581485991E-4
1.880418029E0,-1.527161949E-4,-1.374445739E-3,-4.581485991E-4
1.882545529E0,1.069013379E-3,-1.527161949E-4,-1.679878100E-3
1.884673081E0,-1.374445739E-3,-1.527161949E-4,-4.581485991E-4
1.886800581E0,-1.374445739E-3,-1.527161949E-4,7.635809598E-4
1.888928133E0,-1.527161949E-4,2.290742937E-3,-4.581485991E-4
1.891055685E0,-1.527161949E-4,1.069013379E-3,-4.581485991E-4
1.893183185E0,-1.527161949E-4,1.069013379E-3,7.635809598E-4
1.895310737E0,-1.527161949E-4,-1.527161949E-4,7.635809598E-4
1.897438237E0,-1.527161949E-4,-1.374445739E-3,7.635809598E-4
1.899565789E0,-1.527161949E-4,-1.527161949E-4,7.635809598E-4
1.901693341E0,1.069013379E-3,-1.527161949E-4,7.635809598E-4
1.903820841E0,-1.374445739E-3,-1.527161949E-4,7.635809598E-4
1.905948393E0,-2.596175298E-3,1.069013379E-3,-4.581485991E-4
1.908075945E0,-1.527161949E-4,-1.527161949E-4,7.635809598E-4
1.910203445E0,-1.527161949E-4,1.069013379E-3,-1.679878100E-3
1.912330997E0,-1.374445739E-3,-1.374445739E-3,-4.581485991E-4
1.914458497E0,-1.374445739E-3,1.069013379E-3,1.985310577E-3
1.916586049E0,-1.527161949E-4,-1.527161949E-4,1.985310577E-3
1.918713601E0,-1.527161949E-4,-1.527161949E-4,-4.581485991E-4
1.920841101E0,-1.527161949E-4,1.069013379E-3,-4.581485991E-4
1.922968654E0,-1.374445739E-3,-1.527161949E-4,-4.581485991E-4
1.925096154E0,-1.374445739E-3,1.069013379E-3,7.635809598E-4
1.927223706E0,-2.596175298E-3,-1.527161949E-4,7.635809598E-4
1.929351258E0,-1.374445739E-3,-1.527161949E-4,-4.581485991E-4
1.931478758E0,1.069013379E-3,-1.374445739E-3,7.635809598E-4
1.933606310E0,1.069013379E-3,-1.527161949E-4,-4.581485991E-4
1.935733862E0,-1.374445739E-3,-1.527161949E-4,7.635809598E-4
1.937861362E0,-1.374445739E-3,-1.527161949E-4,-4.581485991E-4
1.939988914E0,-1.374445739E-3,-1.527161949E-4,-4.581485991E-4
1.942116466E0,-2.596175298E-3,-1.527161949E-4,7.635809598E-4
1.944243966E0,-1.374445739E-3,1.069013379E-3,-4.581485991E-4
1.946371518E0,-1.527161949E-4,-1.374445739E-3,-4.581485991E-4
1.948499018E0,-1.527161949E-4,1.069013379E-3,-4.581485991E-4
1.950626570E0,1.069013379E-3,-1.374445739E-3,-4.581485991E-4
1.952754122E0,-1.527161949E-4,-1.374445739E-3,-4.581485991E-4
1.954881622E0,-1.374445739E-3,-1.374445739E-3,-4.581485991E-4
1.957009174E0,-1.527161949E-4,-1.374445739E-3,-1.679878100E-3
1.959136726E0,-1.527161949E-4,1.069013379E-3,-4.581485991E-4
1.961264226E0,-1.527161949E-4,-1.527161949E-4,-4.581485991E-4
1.963391779E0,1.069013379E-3,1.069013379E-3,-4.581485991E-4
1.965519331E0,-1.527161949E-4,-1.527161949E-4,7.635809598E-4
1.967646831E0,-1.527161949E-4,-1.527161949E-4,-4.581485991E-4
1.969774383E0,-1.374445739E-3,1.069013379E-3,7.635809598E-4
1.971901883E0,-2.596175298E-3,-1.374445739E-3,-4.581485991E-4
1.974029435E0,-1.374445739E-3,1.069013379E-3,-4.581485991E-4
1.976156987E0,-1.374445739E-3,-1.527161949E-4,-4.581485991E-4
1.978284487E0,2.290742937E-3,-1.527161949E-4,-4.581485991E-4
1.980412039E0,-1.374445739E-3,-1.527161949E-4,-4.581485991E-4
1.982539539E0,-1.527161949E-4,-1.374445739E-3,-4.581485991E-4
1.984667091E0,1.069013379E-3,1.069013379E-3,7.635809598E-4
1.986794643E0,-1.374445739E-3,1.069013379E-3,-4.581485991E-4
1.988922143E0,-1.374445739E-3,-1.527161949E-4,-1.679878100E-3
1.991049695E0,1.069013379E-3,-1.527161949E-4,-4.581485991E-4
1.993177195E0,-1.527161949E-4,1.069013379E-3,-4.581485991E-4
1.995304747E0,-1.527161949E-4,-1.527161949E-4,-4.581485991E-4
1.997432299E0,1.069013379E-3,-1.527161949E-4,-1.679878100E-3
1.999559851E0,-1.374445739E-3,-1.527161949E-4,7.635809598E-4
2.001687351E0,-1.527161949E-4,-1.527161949E-4,-4.581485991E-4
2.003814904E0,-1.527161949E-4,-1.374445739E-3,-4.581485991E-4
2.005942404E0,1.069013379E-3,-1.527161949E-4,-4.581485991E-4
2.008069956E0,-1.374445739E-3,1.069013379E-3,-4.581485991E-4
2.010197456E0,-1.527161949E-4,-1.527161949E-4,-4.581485991E-4
2.012325008E0,1.069013379E-3,1.069013379E-3,7.635809598E-4
2.014452560E0,-1.527161949E-4,-1.527161949E-4,7.635809598E-4
2.016580060E0,-1.527161949E-4,-1.527161949E-4,-4.581485991E-4
2.018707612E0,1.069013379E-3,1.069013379E-3,7.635809598E-4
2.020835164E0,-1.527161949E-4,1.069013379E-3,7.635809598E-4
2.022962664E0,-1.527161949E-4,1.069013379E-3,7.635809598E-4
2.025090216E0,-1.374445739E-3,1.069013379E-3,7.635809598E-4
2.027217768E0,-1.527161949E-4,1.069013379E-3,-4.581485991E-4
2.029345268E0,-1.527161949E-4,-1.527161949E-4,-1.679878100E-3
2.031472820E0,1.069013379E-3,-1.374445739E-3,-4.581485991E-4
2.033600320E0,-1.527161949E-4,1.069013379E-3,7.635809598E-4
2.035727872E0,-1.374445739E-3,-1.374445739E-3,7.635809598E-4
2.037855424E0,-1.527161949E-4,-1.527161949E-4,7.635809598E-4
2.039982924E0,-1.527161949E-4,-1.527161949E-4,-4.581485991E-4
2.042110476E0,-1.374445739E-3,-1.374445739E-3,7.635809598E-4
2.044237976E0,-1.527161949E-4,-1.527161949E-4,7.635809598E-4
2.046365529E0,-1.527161949E-4,-1.527161949E-4,-4.581485991E-4
2.048493081E0,-1.374445739E-3,-1.527161949E-4,-4.581485991E-4
2.050620581E0,-1.374445739E-3,1.069013379E-3,-4.581485991E-4
2.052748133E0,-1.527161949E-4,-1.527161949E-4,-4.581485991E-4
2.054875685E0,-1.527161949E-4,-1.527161949E-4,-4.581485991E-4
2.057003185E0,-1.527161949E-4,1.069013379E-3,-4.581485991E-4
2.059130737E0,1.069013379E-3,-1.374445739E-3,7.635809598E-4
2.061258237E0,-1.527161949E-4,2.290742937E-3,-4.581485991E-4
2.063385789E0,1.069013379E-3,-1.374445739E-3,-4.581485991E-4
2.065513341E0,1.069013379E-3,-1.527161949E-4,-4.581485991E-4
2.067640841E0,2.290742937E-3,-1.527161949E-4,-4.581485991E-4
2.069768393E0,-1.527161949E-4,1.069013379E-3,-1.679878100E-3
2.071895945E0,-2.596175298E-3,2.290742937E-3,-4.581485991E-4
2.074023445E0,-1.527161949E-4,1.069013379E-3,7.635809598E-4
2.076150997E0,-1.527161949E-4,-1.527161949E-4,1.985310577E-3
2.078278497E0,-1.527161949E-4,1.069013379E-3,7.635809598E-4
2.080406049E0,-1.374445739E-3,1.069013379E-3,7.635809598E-4
2.082533601E0,-1.374445739E-3,-1.527161949E-4,-4.581485991E-4
2.084661101E0,-1.527161949E-4,-1.527161949E-4,7.635809598E-4
2.086788654E0,-1.527161949E-4,1.069013379E-3,7.635809598E-4
2.088916206E0,-1.527161949E-4,1.069013379E-3,-4.581485991E-4
2.091043706E0,1.069013379E-3,-1.527161949E-4,-4.581485991E-4
2.093171258E0,1.069013379E-3,-1.527161949E-4,-4.581485991E-4
2.095298758E0,1.069013379E-3,1.069013379E-3,-4.581485991E-4
2.097426310E0,1.069013379E-3,-1.527161949E-4,-4.581485991E-4
2.099553862E0,-1.374445739E-3,1.069013379E-3,-4.581485991E-4
2.101681362E0,-1.374445739E-3,-1.527161949E-4,7.635809598E-4
2.103808914E0,-1.374445739E-3,1.069013379E-3,-4.581485991E-4
2.105936466E0,-1.527161949E-4,1.069013379E-3,7.635809598E-4
2.108063966E0,1.069013379E-3,-1.374445739E-3,-4.581485991E-4
2.110191518E0,-1.374445739E-3,-1.527161949E-4,7.635809598E-4
2.112319018E0,-1.527161949E-4,-1.527161949E-4,-4.581485991E-4
2.114446570E0,-1.527161949E-4,-1.527161949E-4,-4.581485991E-4
2.116574122E0,-1.527161949E-4,-1.374445739E-3,-4.581485991E-4
2.118701622E0,-1.374445739E-3,-1.527161949E-4,-4.581485991E-4
2.120829174E0,-1.374445739E-3,-1.527161949E-4,7.635809598E-4
2.122956726E0,-1.374445739E-3,-1.527161949E-4,-4.581485991E-4
2.125084226E0,-1.527161949E-4,-1.527161949E-4,-4.581485991E-4
2.127211779E0,-1.527161949E-4,-1.527161949E-4,-4.581485991E-4
2.129339279E0,-1.527161949E-4,-1.527161949E-4,-4.581485991E-4
2.131466831E0,-1.527161949E-4,1.069013379E-3,-4.581485991E-4
2.133594383E0,-1.374445739E-3,1.069013379E-3,-4.581485991E-4
2.135721883E0,-1.527161949E-4,-1.527161949E-4,-4.581485991E-4
2.137849435E0,-1.527161949E-4,1.069013379E-3,-4.581485991E-4
2.139976987E0,-1.374445739E-3,-1.374445739E-3,-4.581485991E-4
2.142104487E0,-1.527161949E-4,-1.527161949E-4,7.635809598E-4
2.144232039E0,1.069013379E-3,-1.527161949E-4,-4.581485991E-4
2.146359539E0,-1.374445739E-3,1.069013379E-3,-4.581485991E-4
2.148487091E0,-1.374445739E-3,-1.527161949E-4,-4.581485991E-4
2.150614643E0,1.069013379E-3,1.069013379E-3,-4.581485991E-4
2.152742143E0,1.069013379E-3,1.069013379E-3,7.635809598E-4
2.154869695E0,-1.527161949E-4,-1.527161949E-4,7.635809598E-4
2.156997247E0,-1.374445739E-3,-1.527161949E-4,7.635809598E-4
2.159124747E0,-1.527161949E-4,-1.527161949E-4,-4.581485991E-4
2.161252299E0,-1.374445739E-3,1.069013379E-3,7.635809598E-4
2.163379799E0,-1.374445739E-3,1.069013379E-3,7.635809598E-4
2.165507351E0,-1.527161949E-4,-1.527161949E-4,-4.581485991E-4
2.167634904E0,-1.374445739E-3,1.069013379E-3,-4.581485991E-4
2.169762404E0,-1.527161949E-4,1.069013379E-3,-4.581485991E-4
2.171889956E0,1.069013379E-3,-1.527161949E-4,-4.581485991E-4
2.174017456E0,-1.374445739E-3,1.069013379E-3,-4.581485991E-4
2.176145008E0,-1.374445739E-3,-1.527161949E-4,7.635809598E-4
2.178272560E0,1.069013379E-3,1.069013379E-3,-4.581485991E-4
2.180400060E0,-1.527161949E-4,1.069013379E-3,7.635809598E-4
2.182527612E0,-1.527161949E-4,1.069013379E-3,-1.679878100E-3
2.184655164E0,-1.527161949E-4,-1.374445739E-3,-4.581485991E-4
2.186782664E0,-1.527161949E-4,1.069013379E-3,7.635809598E-4
2.188910216E0,-1.527161949E-4,-1.374445739E-3,-4.581485991E-4
2.191037716E0,-1.374445739E-3,-1.527161949E-4,-4.581485991E-4
2.193165268E0,-1.374445739E-3,-1.374445739E-3,7.635809598E-4
2.195292820E0,-1.527161949E-4,-1.527161949E-4,7.635809598E-4
2.197420320E0,1.069013379E-3,1.069013379E-3,-4.581485991E-4
2.199547872E0,-1.374445739E-3,1.069013379E-3,-4.581485991E-4
2.201675424E0,-1.527161949E-4,-1.527161949E-4,-4.581485991E-4
2.203802924E0,1.069013379E-3,1.069013379E-3,-4.581485991E-4
2.205930476E0,-1.527161949E-4,-1.527161949E-4,-4.581485991E-4
2.208057976E0,-1.374445739E-3,-1.527161949E-4,-4.581485991E-4
2.210185529E0,-1.527161949E-4,-1.527161949E-4,1.985310577E-3
2.212313081E0,1.069013379E-3,-1.527161949E-4,-4.581485991E-4
2.214440581E0,1.069013379E-3,2.290742937E-3,-4.581485991E-4
2.216568133E0,-1.374445739E-3,1.069013379E-3,7.635809598E-4
2.218695685E0,-1.527161949E-4,-1.527161949E-4,7.635809598E-4
2.220823185E0,-1.527161949E-4,-1.527161949E-4,-4.581485991E-4
2.222950737E0,-1.527161949E-4,-1.527161949E-4,1.985310577E-3
2.225078237E0,-1.527161949E-4,1.069013379E-3,7.635809598E-4
2.227205789E0,-1.374445739E-3,1.069013379E-3,7.635809598E-4
2.229333341E0,-1.527161949E-4,1.069013379E-3,7.635809598E-4
2.231460841E0,-1.527161949E-4,1.069013379E-3,7.635809598E-4
2.233588393E0,2.290742937E-3,-1.374445739E-3,-4.581485991E-4
2.235715893E0,1.069013379E-3,-1.527161949E-4,7.635809598E-4
2.237843445E0,1.069013379E-3,-1.527161949E-4,-4.581485991E-4
2.239970997E0,-1.527161949E-4,1.069013379E-3,7.635809598E-4
2.242098497E0,-1.527161949E-4,-1.527161949E-4,7.635809598E-4
2.244226049E0,1.069013379E-3,-1.527161949E-4,7.635809598E-4
2.246353601E0,-1.527161949E-4,2.290742937E-3,7.635809598E-4
2.248481101E0,1.069013379E-3,-1.527161949E-4,-4.581485991E-4
2.250608654E0,-1.527161949E-4,-1.527161949E-4,-4.581485991E-4
2.252736154E0,-1.374445739E-3,1.069013379E-3,7.635809598E-4
2.254863706E0,-1.527161949E-4,1.069013379E-3,-4.581485991E-4
2.256991258E0,-1.527161949E-4,-1.527161949E-4,7.635809598E-4
2.259118758E0,-1.374445739E-3,-1.374445739E-3,-4.581485991E-4
2.261246310E0,1.069013379E-3,-1.374445739E-3,-4.581485991E-4
2.263373862E0,-1.374445739E-3,-1.527161949E-4,-4.581485991E-4
2.265501362E0,1.069013379E-3,1.069013379E-3,-4.581485991E-4
2.267628914E0,1.069013379E-3,1.069013379E-3,7.635809598E-4
2.269756414E0,-1.527161949E-4,-1.527161949E-4,-4.581485991E-4
2.271883966E0,1.069013379E-3,-1.527161949E-4,7.635809598E-4
2.274011518E0,1.069013379E-3,-1.527161949E-4,-4.581485991E-4
2.276139018E0,1.069013379E-3,-1.374445739E-3,-1.679878100E-3
2.278266570E0,-1.527161949E-4,1.069013379E-3,7.635809598E-4
2.280394122E0,-1.527161949E-4,-1.527161949E-4,-4.581485991E-4
2.282521622E0,-1.527161949E-4,1.069013379E-3,7.635809598E-4
2.284649174E0,1.069013379E-3,-1.374445739E-3,-1.679878100E-3
2.286776726E0,-1.374445739E-3,-1.527161949E-4,-4.581485991E-4
2.288904226E0,-1.527161949E-4,-1.374445739E-3,-4.581485991E-4
2.291031779E0,1.069013379E-3,-1.527161949E-4,-4.581485991E-4
2.293159279E0,-1.527161949E-4,-1.527161949E-4,7.635809598E-4
2.295286831E0,-1.527161949E-4,1.069013379E-3,7.635809598E-4
2.297414383E0,-1.374445739E-3,-1.527161949E-4,7.635809598E-4
2.299541883E0,-1.374445739E-3,1.069013379E-3,7.635809598E-4
2.301669435E0,-1.527161949E-4,1.069013379E-3,-1.679878100E-3
2.303796935E0,-1.374445739E-3,-1.527161949E-4,7.635809598E-4
2.305924487E0,-1.527161949E-4,-1.527161949E-4,7.635809598E-4
2.308052039E0,-1.527161949E-4,-1.527161949E-4,7.635809598E-4
2.310179539E0,-1.374445739E-3,2.290742937E-3,-4.581485991E-4
2.312307091E0,-1.374445739E-3,1.069013379E-3,-4.581485991E-4
2.314434591E0,1.069013379E-3,1.069013379E-3,-4.581485991E-4
2.316562143E0,1.069013379E-3,1.069013379E-3,-4.581485991E-4
2.318689695E0,-1.527161949E-4,1.069013379E-3,-4.581485991E-4
2.320817195E0,-1.374445739E-3,1.069013379E-3,-1.679878100E-3
2.322944747E0,-1.527161949E-4,1.069013379E-3,-4.581485991E-4
2.325072299E0,2.290742937E-3,-1.527161949E-4,-4.581485991E-4
2.327199799E0,1.069013379E-3,-1.527161949E-4,-4.581485991E-4
2.329327351E0,-1.527161949E-4,-1.527161949E-4,-1.679878100E-3
2.331454904E0,-1.374445739E-3,-1.527161949E-4,7.635809598E-4
2.333582404E0,-1.527161949E-4,1.069013379E-3,-4.581485991E-4
2.335709956E0,1.069013379E-3,-1.527161949E-4,-4.581485991E-4
2.337837456E0,-1.527161949E-4,-1.527161949E-4,-1.679878100E-3
2.339965008E0,1.069013379E-3,-2.596175298E-3,-4.581485991E-4
2.342092560E0,-1.374445739E-3,-1.527161949E-4,-4.581485991E-4
2.344220060E0,-1.527161949E-4,-1.527161949E-4,-4.581485991E-4
2.346347612E0,-1.374445739E-3,2.290742937E-3,-4.581485991E-4
2.348475112E0,-1.374445739E-3,-1.374445739E-3,7.635809598E-4
2.350602664E0,-1.527161949E-4,-1.527161949E-4,-4.581485991E-4
2.352730216E0,1.069013379E-3,-1.527161949E-4,-4.581485991E-4
2.354857716E0,-1.527161949E-4,-1.527161949E-4,7.635809598E-4
2.356985268E0,-1.527161949E-4,-1.527161949E-4,-4.581485991E-4
2.359112820E0,-1.527161949E-4,-1.527161949E-4,7.635809598E-4
2.361240320E0,-1.374445739E-3,-1.527161949E-4,7.635809598E-4
2.363367872E0,-1.527161949E-4,-1.527161949E-4,-4.581485991E-4
2.365495372E0,-1.527161949E-4,-1.527161949E-4,-4.581485991E-4
2.367622924E0,-1.527161949E-4,-1.527161949E-4,-4.581485991E-4
2.369750476E0,-1.374445739E-3,-1.527161949E-4,-4.581485991E-4
2.371877976E0,-1.527161949E-4,1.069013379E-3,-4.581485991E-4
2.374005529E0,-1.527161949E-4,-1.527161949E-4,7.635809598E-4
2.376133029E0,-1.374445739E-3,-1.527161949E-4,7.635809598E-4
2.378260581E0,1.069013379E-3,-1.527161949E-4,7.635809598E-4
2.380388133E0,-1.527161949E-4,-1.374445739E-3,7.635809598E-4
2.382515633E0,-1.527161949E-4,-1.527161949E-4,7.635809598E-4
2.384643185E0,-1.527161949E-4,1.069013379E-3,-4.581485991E-4
2.386770737E0,1.069013379E-3,-1.527161949E-4,-4.581485991E-4
2.388898237E0,-2.596175298E-3,-1.527161949E-4,-4.581485991E-4
2.391025789E0,1.069013379E-3,-1.527161949E-4,7.635809598E-4
2.393153341E0,1.069013379E-3,-1.527161949E-4,-4.581485991E-4
2.395280841E0,1.069013379E-3,-1.527161949E-4,7.635809598E-4
2.397408393E0,-1.527161949E-4,-1.527161949E-4,-4.581485991E-4
2.399535893E0,-1.527161949E-4,-1.527161949E-4,-4.581485991E-4
2.401663445E0,-1.527161949E-4,1.069013379E-3,7.635809598E-4
2.403790945E0,2.290742937E-3,-1.527161949E-4,-4.581485991E-4
2.405918497E0,-1.527161949E-4,1.069013379E-3,-4.581485991E-4
2.408046049E0,-1.374445739E-3,-1.374445739E-3,-1.679878100E-3
2.410173601E0,-1.374445739E-3,-1.527161949E-4,-1.679878100E-3
2.412301101E0,-1.527161949E-4,-1.527161949E-4,7.635809598E-4
2.414428654E0,-1.527161949E-4,-1.527161949E-4,-1.679878100E-3
2.416556154E0,-1.527161949E-4,-1.527161949E-4,-4.581485991E-4
2.418683706E0,1.069013379E-3,1.069013379E-3,7.635809598E-4
2.420811206E0,1.069013379E-3,1.069013379E-3,7.635809598E-4
2.422938758E0,1.069013379E-3,-1.527161949E-4,-4.581485991E-4
2.425066310E0,1.069013379E-3,-1.527161949E-4,7.635809598E-4
2.427193810E0,-1.527161949E-4,-1.527161949E-4,-4.581485991E-4
2.429321362E0,1.069013379E-3,1.069013379E-3,7.635809598E-4
2.431448914E0,-1.374445739E-3,1.069013379E-3,7.635809598E-4
2.433576414E0,-1.527161949E-4,-1.527161949E-4,-4.581485991E-4
2.435703966E0,-2.596175298E-3,-1.527161949E-4,7.635809598E-4
2.437831518E0,-1.527161949E-4,-1.527161949E-4,7.635809598E-4
2.439959018E0,1.069013379E-3,-1.527161949E-4,-4.581485991E-4
2.442086570E0,-1.527161949E-4,-1.374445739E-3,-4.581485991E-4
2.444214070E0,-1.527161949E-4,-1.527161949E-4,-4.581485991E-4
2.446341622E0,-1.527161949E-4,-1.527161949E-4,-1.679878100E-3
2.448469174E0,-1.527161949E-4,-1.527161949E-4,7.635809598E-4
2.450596674E0,2.290742937E-3,1.069013379E-3,7.635809598E-4
2.452724226E0,-1.374445739E-3,1.069013379E-3,7.635809598E-4
2.454851726E0,1.069013379E-3,-1.374445739E-3,7.635809598E-4
2.456979279E0,-1.527161949E-4,-1.527161949E-4,-4.581485991E-4
2.459106831E0,1.069013379E-3,-1.374445739E-3,-1.679878100E-3
2.461234331E0,-1.527161949E-4,-1.374445739E-3,-4.581485991E-4
2.463361883E0,1.069013379E-3,-1.527161949E-4,-4.581485991E-4
2.465489435E0,1.069013379E-3,-1.374445739E-3,-4.581485991E-4
2.467616935E0,-1.527161949E-4,-1.527161949E-4,7.635809598E-4
2.469744487E0,-1.527161949E-4,-1.527161949E-4,7.635809598E-4
2.471871987E0,-1.527161949E-4,1.069013379E-3,7.635809598E-4
2.473999539E0,-1.374445739E-3,-1.527161949E-4,7.635809598E-4
2.476127091E0,-1.527161949E-4,-1.527161949E-4,-4.581485991E-4
2.478254591E0,-1.374445739E-3,-1.527161949E-4,-4.581485991E-4
2.480382143E0,-1.374445739E-3,1.069013379E-3,-4.581485991E-4
2.482509643E0,-1.374445739E-3,1.069013379E-3,7.635809598E-4
2.484637195E0,-1.374445739E-3,1.069013379E-3,-4.581485991E-4
2.486764747E0,1.069013379E-3,-1.527161949E-4,7.635809598E-4
2.488892247E0,-1.374445739E-3,-1.527161949E-4,-4.581485991E-4
2.491019799E0,-1.527161949E-4,-1.527161949E-4,7.635809598E-4
2.493147351E0,1.069013379E-3,1.069013379E-3,-4.581485991E-4
2.495274851E0,1.069013379E-3,1.069013379E-3,-4.581485991E-4
2.497402404E0,-1.527161949E-4,-1.527161949E-4,-4.581485991E-4
2.499529904E0,-1.527161949E-4,-1.527161949E-4,-4.581485991E-4
2.501657456E0,-1.527161949E-4,-1.374445739E-3,-4.581485991E-4
2.503785008E0,1.069013379E-3,1.069013379E-3,-4.581485991E-4
2.505912508E0,-1.527161949E-4,-1.527161949E-4,7.635809598E-4
2.508040060E0,-1.527161949E-4,-1.374445739E-3,-4.581485991E-4
2.510167560E0,-1.527161949E-4,-1.527161949E-4,-4.581485991E-4
2.512295112E0,-1.527161949E-4,1.069013379E-3,-1.679878100E-3
2.514422664E0,-1.527161949E-4,-1.527161949E-4,-4.581485991E-4
2.516550164E0,-1.527161949E-4,1.069013379E-3,-4.581485991E-4
2.518677716E0,1.069013379E-3,-1.374445739E-3,7.635809598E-4
2.520805216E0,-1.527161949E-4,-1.527161949E-4,-4.581485991E-4
2.522932768E0,-1.527161949E-4,1.069013379E-3,7.635809598E-4
2.525060320E0,-1.527161949E-4,-1.374445739E-3,7.635809598E-4
2.527187820E0,-1.527161949E-4,1.069013379E-3,-4.581485991E-4
2.529315372E0,-1.374445739E-3,1.069013379E-3,-4.581485991E-4
2.531442924E0,-1.527161949E-4,-1.527161949E-4,7.635809598E-4
2.533570424E0,1.069013379E-3,-1.527161949E-4,-4.581485991E-4
2.535697976E0,1.069013379E-3,-1.527161949E-4,-4.581485991E-4
2.537825529E0,-1.527161949E-4,1.069013379E-3,-4.581485991E-4
2.539953029E0,-1.527161949E-4,1.069013379E-3,-1.679878100E-3
2.542080581E0,-1.527161949E-4,1.069013379E-3,-4.581485991E-4
2.544208081E0,2.290742937E-3,1.069013379E-3,-4.581485991E-4
2.546335633E0,-1.527161949E-4,-1.527161949E-4,-4.581485991E-4
2.548463185E0,-1.527161949E-4,1.069013379E-3,7.635809598E-4
2.550590685E0,-1.527161949E-4,1.069013379E-3,1.985310577E-3
2.552718237E0,-1.374445739E-3,1.069013379E-3,7.635809598E-4
2.554845737E0,-1.527161949E-4,-1.527161949E-4,-4.581485991E-4
2.556973289E0,-1.374445739E-3,1.069013379E-3,-4.581485991E-4
2.559100841E0,-1.374445739E-3,-1.527161949E-4,-4.581485991E-4
2.561228341E0,-1.527161949E-4,1.069013379E-3,-1.679878100E-3
2.563355893E0,-1.527161949E-4,-1.527161949E-4,-4.581485991E-4
2.565483393E0,1.069013379E-3,-1.527161949E-4,7.635809598E-4
2.567610945E0,-1.527161949E-4,-1.527161949E-4,7.635809598E-4
2.569738497E0,-1.527161949E-4,-1.374445739E-3,-4.581485991E-4
2.571866049E0,-1.374445739E-3,1.069013379E-3,-4.581485991E-4
2.573993549E0,-1.527161949E-4,-1.527161949E-4,-4.581485991E-4
2.576121101E0,-1.527161949E-4,-1.527161949E-4,-4.581485991E-4
2.578248601E0,-1.527161949E-4,-1.527161949E-4,-4.581485991E-4
2.580376154E0,-1.527161949E-4,1.069013379E-3,-4.581485991E-4
2.582503706E0,-1.527161949E-4,-1.374445739E-3,-4.581485991E-4
2.584631206E0,-1.527161949E-4,-1.374445739E-3,-4.581485991E-4
2.586758758E0,1.069013379E-3,-2.596175298E-3,-4.581485991E-4
2.588886310E0,-1.527161949E-4,-1.527161949E-4,7.635809598E-4
2.591013810E0,-1.527161949E-4,-1.374445739E-3,7.635809598E-4
2.593141362E0,2.290742937E-3,-1.374445739E-3,-1.679878100E-3
2.595268862E0,-1.374445739E-3,1.069013379E-3,-1.679878100E-3
2.597396414E0,-1.527161949E-4,-1.527161949E-4,-4.581485991E-4
2.599523914E0,1.069013379E-3,-1.527161949E-4,-4.581485991E-4
2.601651466E0,-1.527161949E-4,-1.374445739E-3,-4.581485991E-4
2.603779018E0,-1.374445739E-3,1.069013379E-3,-1.679878100E-3
2.605906518E0,-1.527161949E-4,1.069013379E-3,-4.581485991E-4
2.608034070E0,1.069013379E-3,-1.527161949E-4,-4.581485991E-4
2.610161622E0,-1.527161949E-4,-1.527161949E-4,7.635809598E-4
2.612289122E0,-1.527161949E-4,-1.527161949E-4,-4.581485991E-4
2.614416674E0,-1.374445739E-3,1.069013379E-3,-4.581485991E-4
2.616544174E0,-2.596175298E-3,1.069013379E-3,7.635809598E-4
2.618671726E0,-1.374445739E-3,-1.527161949E-4,7.635809598E-4
2.620799279E0,-2.596175298E-3,-1.527161949E-4,-4.581485991E-4
2.622926779E0,1.069013379E-3,1.069013379E-3,1.985310577E-3
2.625054331E0,-1.527161949E-4,1.069013379E-3,-4.581485991E-4
2.627181831E0,-1.527161949E-4,-1.527161949E-4,-4.581485991E-4
2.629309383E0,-1.527161949E-4,-1.374445739E-3,-4.581485991E-4
2.631436935E0,-1.527161949E-4,-1.527161949E-4,-1.679878100E-3
2.633564435E0,-1.527161949E-4,-1.527161949E-4,-1.679878100E-3
2.635691987E0,-1.374445739E-3,-1.527161949E-4,-4.581485991E-4
2.637819487E0,-1.527161949E-4,-1.374445739E-3,-4.581485991E-4
2.639947039E0,-1.374445739E-3,1.069013379E-3,-4.581485991E-4
2.642074591E0,2.290742937E-3,1.069013379E-3,-4.581485991E-4
2.644202091E0,-1.527161949E-4,-1.527161949E-4,-4.581485991E-4
2.646329643E0,1.069013379E-3,1.069013379E-3,7.635809598E-4
2.648457195E0,-1.527161949E-4,-1.527161949E-4,7.635809598E-4
2.650584695E0,-1.527161949E-4,1.069013379E-3,1.985310577E-3
2.652712247E0,-1.374445739E-3,-1.527161949E-4,1.985310577E-3
2.654839747E0,-1.374445739E-3,-1.527161949E-4,-4.581485991E-4
2.656967299E0,-1.374445739E-3,1.069013379E-3,-4.581485991E-4
2.659094851E0,-1.527161949E-4,-1.527161949E-4,-4.581485991E-4
2.661222351E0,1.069013379E-3,1.069013379E-3,7.635809598E-4
2.663349904E0,1.069013379E-3,-1.374445739E-3,-1.679878100E-3
2.665477456E0,-1.527161949E-4,-1.527161949E-4,7.635809598E-4
2.667604956E0,1.069013379E-3,1.069013379E-3,7.635809598E-4
2.669732508E0,-1.527161949E-4,-1.527161949E-4,7.635809598E-4
2.671860060E0,-1.527161949E-4,1.069013379E-3,-4.581485991E-4
2.673987560E0,-1.527161949E-4,2.290742937E-3,-4.581485991E-4
2.676115112E0,1.069013379E-3,-1.527161949E-4,7.635809598E-4
2.678242664E0,1.069013379E-3,-1.527161949E-4,-4.581485991E-4
2.680370164E0,-1.527161949E-4,-1.527161949E-4,-4.581485991E-4
2.682497716E0,1.069013379E-3,-1.374445739E-3,-4.581485991E-4
2.684625216E0,-1.527161949E-4,-1.374445739E-3,7.635809598E-4
2.686752768E0,-1.374445739E-3,-1.527161949E-4,7.635809598E-4
2.688880268E0,-1.374445739E-3,1.069013379E-3,-1.679878100E-3
2.691007820E0,-1.374445739E-3,-1.527161949E-4,-4.581485991E-4
2.693135372E0,-1.374445739E-3,-1.527161949E-4,7.635809598E-4
2.695262872E0,-1.374445739E-3,-1.527161949E-4,7.635809598E-4
2.697390424E0,-1.527161949E-4,-1.527161949E-4,7.635809598E-4
2.699517976E0,-1.527161949E-4,-1.527161949E-4,-4.581485991E-4
2.701645476E0,1.069013379E-3,-1.527161949E-4,-1.679878100E-3
2.703773029E0,-1.527161949E-4,1.069013379E-3,7.635809598E-4
2.705900529E0,1.069013379E-3,-1.527161949E-4,-4.581485991E-4
2.708028081E0,1.069013379E-3,1.069013379E-3,-4.581485991E-4
2.710155633E0,-1.527161949E-4,1.069013379E-3,-4.581485991E-4
2.712283133E0,-1.374445739E-3,-1.527161949E-4,7.635809598E-4
2.714410685E0,-1.527161949E-4,-1.527161949E-4,7.635809598E-4
2.716538185E0,-1.527161949E-4,1.069013379E-3,7.635809598E-4
2.718665737E0,-1.527161949E-4,-1.374445739E-3,-4.581485991E-4
2.720793289E0,-1.527161949E-4,-1.527161949E-4,7.635809598E-4
2.722920789E0,1.069013379E-3,1.069013379E-3,7.635809598E-4
2.725048341E0,1.069013379E-3,-1.527161949E-4,-4.581485991E-4
2.727175841E0,-1.527161949E-4,-1.527161949E-4,-4.581485991E-4
2.729303393E0,-1.527161949E-4,-1.527161949E-4,-4.581485991E-4
2.731430945E0,-1.527161949E-4,-1.527161949E-4,7.635809598E-4
2.733558445E0,1.069013379E-3,-1.527161949E-4,7.635809598E-4
2.735685997E0,2.290742937E-3,-1.374445739E-3,-4.581485991E-4
2.737813549E0,-1.374445739E-3,1.069013379E-3,1.985310577E-3
2.739941049E0,-1.527161949E-4,-1.527161949E-4,7.635809598E-4
2.742068601E0,-1.374445739E-3,-1.527161949E-4,-4.581485991E-4
2.744196101E0,-1.527161949E-4,-1.374445739E-3,7.635809598E-4
2.746323654E0,1.069013379E-3,1.069013379E-3,7.635809598E-4
2.748451206E0,1.069013379E-3,1.069013379E-3,-4.581485991E-4
2.750578706E0,-1.527161949E-4,1.069013379E-3,7.635809598E-4
2.752706258E0,-1.527161949E-4,1.069013379E-3,7.635809598E-4
2.754833758E0,1.069013379E-3,-1.527161949E-4,7.635809598E-4
2.756961310E0,-1.374445739E-3,1.069013379E-3,-4.581485991E-4
2.759088862E0,-1.527161949E-4,-1.527161949E-4,-4.581485991E-4
2.761216362E0,-1.527161949E-4,2.290742937E-3,-4.581485991E-4
2.763343914E0,-1.527161949E-4,-1.527161949E-4,7.635809598E-4
2.765471466E0,1.069013379E-3,-1.374445739E-3,-4.581485991E-4
2.767598966E0,1.069013379E-3,1.069013379E-3,-4.581485991E-4
2.769726518E0,-2.596175298E-3,-1.527161949E-4,-4.581485991E-4
2.771854018E0,-1.374445739E-3,1.069013379E-3,-1.679878100E-3
2.773981570E0,1.069013379E-3,1.069013379E-3,-4.581485991E-4
2.776109122E0,-1.527161949E-4,-1.527161949E-4,7.635809598E-4
2.778236622E0,-1.374445739E-3,1.069013379E-3,-4.581485991E-4
2.780364174E0,-1.527161949E-4,1.069013379E-3,7.635809598E-4
2.782491674E0,-1.374445739E-3,-1.527161949E-4,-4.581485991E-4
2.784619226E0,1.069013379E-3,-1.527161949E-4,1.985310577E-3
2.786746779E0,-1.374445739E-3,1.069013379E-3,-1.679878100E-3
2.788874279E0,-1.527161949E-4,1.069013379E-3,-4.581485991E-4
2.791001831E0,-1.527161949E-4,-1.374445739E-3,-4.581485991E-4
2.793129331E0,-1.527161949E-4,-1.374445739E-3,-4.581485991E-4
2.795256883E0,1.069013379E-3,-1.527161949E-4,7.635809598E-4
2.797384435E0,-1.527161949E-4,-1.527161949E-4,-4.581485991E-4
2.799511935E0,-1.374445739E-3,-1.527161949E-4,-4.581485991E-4
2.801639487E0,-1.374445739E-3,1.069013379E-3,-4.581485991E-4
2.803767039E0,-1.527161949E-4,-1.527161949E-4,-4.581485991E-4
2.805894539E0,-1.374445739E-3,1.069013379E-3,-4.581485991E-4
2.808022091E0,-1.374445739E-3,1.069013379E-3,-4.581485991E-4
2.810149591E0,-1.374445739E-3,-1.527161949E-4,-4.581485991E-4
2.812277143E0,-1.527161949E-4,1.069013379E-3,7.635809598E-4
2.814404695E0,-1.374445739E-3,1.069013379E-3,-4.581485991E-4
2.816532195E0,-1.527161949E-4,-1.527161949E-4,-4.581485991E-4
2.818659747E0,-1.527161949E-4,1.069013379E-3,-4.581485991E-4
2.820787299E0,1.069013379E-3,1.069013379E-3,7.635809598E-4
2.822914799E0,-1.527161949E-4,1.069013379E-3,-4.581485991E-4
2.825042351E0,-1.374445739E-3,1.069013379E-3,-4.581485991E-4
2.827169851E0,-1.527161949E-4,-1.527161949E-4,-4.581485991E-4
2.829297404E0,1.069013379E-3,1.069013379E-3,-4.581485991E-4
2.831424956E0,1.069013379E-3,1.069013379E-3,-4.581485991E-4
2.833552456E0,1.069013379E-3,-1.527161949E-4,-4.581485991E-4
2.835680008E0,1.069013379E-3,-1.374445739E-3,-4.581485991E-4
2.837807508E0,-1.527161949E-4,-1.527161949E-4,-4.581485991E-4
2.839935060E0,-2.596175298E-3,1.069013379E-3,-4.581485991E-4
2.842062612E0,1.069013379E-3,-1.527161949E-4,-4.581485991E-4
2.844190112E0,-2.596175298E-3,-1.527161949E-4,7.635809598E-4
2.846317664E0,-1.527161949E-4,-1.374445739E-3,7.635809598E-4
2.848445216E0,1.069013379E-3,-1.527161949E-4,7.635809598E-4
2.850572716E0,-1.527161949E-4,1.069013379E-3,-4.581485991E-4
2.852700268E0,-1.527161949E-4,1.069013379E-3,-4.581485991E-4
2.854827768E0,-1.374445739E-3,-1.527161949E-4,7.635809598E-4
2.856955320E0,-1.527161949E-4,-1.527161949E-4,-4.581485991E-4
2.859082872E0,-1.374445739E-3,-1.527161949E-4,-1.679878100E-3
2.861210372E0,-1.527161949E-4,-1.527161949E-4,7.635809598E-4
2.863337924E0,-1.527161949E-4,-1.527161949E-4,7.635809598E-4
2.865465424E0,1.069013379E-3,-1.527161949E-4,-4.581485991E-4
2.867592976E0,2.290742937E-3,-1.527161949E-4,-4.581485991E-4
2.869720529E0,-1.374445739E-3,-1.527161949E-4,7.635809598E-4
2.871848029E0,-1.527161949E-4,-1.527161949E-4,-4.581485991E-4
2.873975581E0,-1.374445739E-3,1.069013379E-3,-4.581485991E-4
2.876103133E0,-1.527161949E-4,-1.527161949E-4,-1.679878100E-3
2.878230633E0,-1.527161949E-4,1.069013379E-3,7.635809598E-4
2.880358185E0,1.069013379E-3,-1.527161949E-4,-4.581485991E-4
2.882485685E0,1.069013379E-3,-2.596175298E-3,-4.581485991E-4
2.884613237E0,-1.374445739E-3,-1.527161949E-4,-4.581485991E-4
2.886740789E0,-1.527161949E-4,-1.527161949E-4,-4.581485991E-4
2.888868289E0,1.069013379E-3,-1.527161949E-4,-4.581485991E-4
2.890995841E0,-1.527161949E-4,-1.527161949E-4,-4.581485991E-4
2.893123393E0,-1.527161949E-4,-1.527161949E-4,-4.581485991E-4
2.895250893E0,-1.527161949E-4,1.069013379E-3,7.635809598E-4
2.897378445E0,-1.374445739E-3,-1.527161949E-4,-4.581485991E-4
2.899505945E0,-1.527161949E-4,1.069013379E-3,7.635809598E-4
2.901633497E0,-1.527161949E-4,1.069013379E-3,-4.581485991E-4
2.903761049E0,1.069013379E-3,2.290742937E-3,-4.581485991E-4
2.905888549E0,1.069013379E-3,1.069013379E-3,7.635809598E-4
2.908016101E0,1.069013379E-3,2.290742937E-3,-4.581485991E-4
2.910143601E0,-1.527161949E-4,-1.527161949E-4,-4.581485991E-4
2.912271154E0,-1.374445739E-3,1.069013379E-3,-4.581485991E-4
2.914398706E0,-1.374445739E-3,-1.374445739E-3,-4.581485991E-4
2.916526206E0,1.069013379E-3,-1.374445739E-3,-1.679878100E-3
2.918653758E0,1.069013379E-3,-1.527161949E-4,7.635809598E-4
2.920781310E0,-1.527161949E-4,-1.527161949E-4,-4.581485991E-4
2.922908810E0,-1.527161949E-4,-1.374445739E-3,7.635809598E-4
2.925036362E0,-1.527161949E-4,-1.527161949E-4,-4.581485991E-4
2.927163862E0,3.512472380E-3,-1.527161949E-4,-4.581485991E-4
2.929291414E0,-1.374445739E-3,-1.527161949E-4,-4.581485991E-4
2.931418914E0,-1.527161949E-4,-1.527161949E-4,7.635809598E-4
2.933546466E0,1.069013379E-3,-1.527161949E-4,-4.581485991E-4
2.935674018E0,-1.374445739E-3,-1.527161949E-4,7.635809598E-4
2.937801518E0,-1.527161949E-4,-1.527161949E-4,-4.581485991E-4
2.939929070E0,-1.527161949E-4,-1.527161949E-4,-4.581485991E-4
2.942056622E0,-1.527161949E-4,-1.374445739E-3,-4.581485991E-4
2.944184122E0,-1.527161949E-4,1.069013379E-3,-4.581485991E-4
2.946311674E0,-1.374445739E-3,1.069013379E-3,7.635809598E-4
2.948439174E0,-1.527161949E-4,1.069013379E-3,-4.581485991E-4
2.950566726E0,1.069013379E-3,-1.527161949E-4,7.635809598E-4
2.952694279E0,-1.527161949E-4,-1.527161949E-4,-4.581485991E-4
2.954821779E0,-1.527161949E-4,-1.527161949E-4,-4.581485991E-4
2.956949331E0,-1.527161949E-4,1.069013379E-3,7.635809598E-4
2.959076831E0,-1.527161949E-4,1.069013379E-3,-4.581485991E-4
2.961204383E0,-1.527161949E-4,1.069013379E-3,-4.581485991E-4
2.963331935E0,1.069013379E-3,1.069013379E-3,-4.581485991E-4
2.965459435E0,-1.527161949E-4,1.069013379E-3,-1.679878100E-3
2.967586987E0,-1.527161949E-4,-1.527161949E-4,7.635809598E-4
2.969714539E0,-1.527161949E-4,-1.527161949E-4,-1.679878100E-3
2.971842039E0,-1.374445739E-3,-1.374445739E-3,-4.581485991E-4
2.973969591E0,1.069013379E-3,-1.527161949E-4,7.635809598E-4
2.976097091E0,-1.374445739E-3,-1.527161949E-4,-4.581485991E-4
2.978224643E0,-1.527161949E-4,-1.374445739E-3,-4.581485991E-4
2.980352195E0,-1.527161949E-4,-1.527161949E-4,7.635809598E-4
2.982479695E0,-1.527161949E-4,-1.527161949E-4,-4.581485991E-4
2.984607247E0,1.069013379E-3,-1.374445739E-3,-1.679878100E-3
2.986734799E0,1.069013379E-3,1.069013379E-3,-4.581485991E-4
2.988862299E0,-1.527161949E-4,-1.527161949E-4,7.635809598E-4
2.990989851E0,-1.527161949E-4,-1.527161949E-4,7.635809598E-4
2.993117351E0,1.069013379E-3,-1.527161949E-4,7.635809598E-4
2.995244904E0,-1.527161949E-4,-1.527161949E-4,-1.679878100E-3
2.997372456E0,-1.374445739E-3,-1.374445739E-3,-1.679878100E-3
2.999499956E0,-1.374445739E-3,-1.527161949E-4,-1.679878100E-3
3.001627508E0,-1.374445739E-3,-1.527161949E-4,-4.581485991E-4
3.003755008E0,-1.374445739E-3,-1.527161949E-4,7.635809598E-4
3.005882560E0,-1.527161949E-4,-1.527161949E-4,1.069013379E-3
3.008010112E0,1.069013379E-3,-2.596175298E-3,-1.527161949E-4
3.010137612E0,-1.374445739E-3,-1.527161949E-4,-1.527161949E-4
3.012265164E0,-1.527161949E-4,-1.527161949E-4,-1.527161949E-4
3.014392716E0,1.069013379E-3,1.069013379E-3,-1.527161949E-4
3.016520216E0,-1.374445739E-3,-1.527161949E-4,1.069013379E-3
3.018647768E0,-1.374445739E-3,1.069013379E-3,2.290742937E-3
3.020775268E0,-1.374445739E-3,-1.374445739E-3,-1.527161949E-4
3.022902820E0,1.069013379E-3,-1.374445739E-3,1.069013379E-3
3.025030320E0,1.069013379E-3,-1.527161949E-4,-1.527161949E-4
3.027157872E0,-1.374445739E-3,-1.527161949E-4,-1.527161949E-4
3.029285424E0,1.069013379E-3,1.069013379E-3,-1.527161949E-4
3.031412924E0,-1.374445739E-3,-1.527161949E-4,2.290742937E-3
3.033540476E0,-1.527161949E-4,1.069013379E-3,1.069013379E-3
3.035667976E0,-2.596175298E-3,-1.527161949E-4,-1.374445739E-3
3.037795529E0,-1.374445739E-3,-1.527161949E-4,-1.527161949E-4
3.039923081E0,1.069013379E-3,-1.527161949E-4,-1.527161949E-4
3.042050581E0,-1.374445739E-3,-1.527161949E-4,-1.527161949E-4
3.044178133E0,-1.527161949E-4,-1.527161949E-4,-1.527161949E-4
3.046305685E0,-1.527161949E-4,-1.374445739E-3,-1.527161949E-4
3.048433185E0,-3.817904973E-3,1.069013379E-3,1.069013379E-3
3.050560737E0,-1.527161949E-4,1.069013379E-3,1.069013379E-3
3.052688237E0,-1.527161949E-4,-1.527161949E-4,-1.527161949E-4
3.054815789E0,1.069013379E-3,-1.527161949E-4,-1.527161949E-4
3.056943341E0,1.069013379E-3,1.069013379E-3,-1.527161949E-4
3.059070841E0,-1.527161949E-4,1.069013379E-3,-1.527161949E-4
3.061198393E0,-1.527161949E-4,-1.527161949E-4,-1.527161949E-4
3.063325893E0,-1.374445739E-3,-1.527161949E-4,-1.527161949E-4
3.065453445E0,-1.527161949E-4,1.069013379E-3,-1.374445739E-3
3.067580997E0,-1.527161949E-4,-1.374445739E-3,-1.527161949E-4
3.069708497E0,1.069013379E-3,1.069013379E-3,-1.527161949E-4
3.071836049E0,-1.527161949E-4,-1.527161949E-4,-1.527161949E-4
3.073963601E0,-1.527161949E-4,1.069013379E-3,-1.527161949E-4
3.076091101E0,-1.374445739E-3,1.069013379E-3,-1.527161949E-4
3.078218654E0,-1.527161949E-4,-1.527161949E-4,-1.527161949E-4
3.080346154E0,-1.527161949E-4,-1.527161949E-4,1.069013379E-3
3.082473706E0,-1.374445739E-3,1.069013379E-3,-1.527161949E-4
3.084601258E0,-1.527161949E-4,-1.527161949E-4,-1.527161949E-4
3.086728758E0,-1.374445739E-3,-1.374445739E-3,-1.527161949E-4
3.088856310E0,-1.374445739E-3,1.069013379E-3,-1.527161949E-4
3.090983810E0,-1.374445739E-3,1.069013379E-3,-1.527161949E-4
3.093111362E0,-1.527161949E-4,-1.527161949E-4,-1.527161949E-4
3.095238914E0,-1.374445739E-3,1.069013379E-3,-1.527161949E-4
3.097366466E0,-1.374445739E-3,-1.374445739E-3,-1.374445739E-3
3.099493966E0,-2.596175298E-3,2.290742937E-3,-1.527161949E-4
3.101621466E0,-1.527161949E-4,-1.527161949E-4,-1.527161949E-4
3.103749018E0,-1.374445739E-3,-1.527161949E-4,1.069013379E-3
3.105876570E0,1.069013379E-3,-1.527161949E-4,-1.527161949E-4
3.108004070E0,1.069013379E-3,-1.527161949E-4,-1.374445739E-3
3.110131622E0,-1.527161949E-4,-1.527161949E-4,-1.527161949E-4
3.112259174E0,2.290742937E-3,-1.374445739E-3,-1.527161949E-4
3.114386674E0,1.069013379E-3,-1.527161949E-4,-1.527161949E-4
3.116514226E0,-1.527161949E-4,1.069013379E-3,-1.527161949E-4
3.118641726E0,-1.374445739E-3,-1.527161949E-4,1.069013379E-3
3.120769279E0,-1.527161949E-4,-1.527161949E-4,-1.527161949E-4
3.122896831E0,3.512472380E-3,-1.527161949E-4,1.069013379E-3
3.125024331E0,2.290742937E-3,1.069013379E-3,-1.527161949E-4
3.127151883E0,-1.527161949E-4,-1.527161949E-4,-1.374445739E-3
3.129279435E0,-1.527161949E-4,1.069013379E-3,-1.527161949E-4
3.131406935E0,1.069013379E-3,1.069013379E-3,-1.527161949E-4
3.133534487E0,-1.374445739E-3,-1.527161949E-4,-1.527161949E-4
3.135661987E0,-1.527161949E-4,-1.527161949E-4,1.069013379E-3
3.137789539E0,-1.374445739E-3,-1.527161949E-4,-1.527161949E-4
3.139917091E0,-1.527161949E-4,1.069013379E-3,1.069013379E-3
3.142044591E0,-1.527161949E-4,-1.527161949E-4,-1.374445739E-3
3.144172143E0,-1.527161949E-4,1.069013379E-3,-1.527161949E-4
3.146299643E0,-1.527161949E-4,1.069013379E-3,-1.527161949E-4
3.148427195E0,1.069013379E-3,1.069013379E-3,-1.527161949E-4
3.150554747E0,-1.527161949E-4,-2.596175298E-3,-1.527161949E-4
3.152682247E0,1.069013379E-3,-1.374445739E-3,-1.527161949E-4
3.154809799E0,-1.374445739E-3,-1.374445739E-3,-1.374445739E-3
3.156937351E0,-1.527161949E-4,-1.527161949E-4,-1.527161949E-4
3.159064851E0,-1.527161949E-4,-1.527161949E-4,-1.374445739E-3
3.161192404E0,-1.374445739E-3,-1.527161949E-4,1.069013379E-3
3.163319904E0,-1.374445739E-3,-1.527161949E-4,-1.527161949E-4
3.165447456E0,1.069013379E-3,-1.527161949E-4,1.069013379E-3
3.167574956E0,1.069013379E-3,1.069013379E-3,1.069013379E-3
3.169702508E0,-1.527161949E-4,-1.527161949E-4,1.069013379E-3
3.171830060E0,-1.527161949E-4,-1.527161949E-4,1.069013379E-3
3.173957560E0,-1.374445739E-3,1.069013379E-3,1.069013379E-3
3.176085112E0,-1.374445739E-3,-1.527161949E-4,-1.527161949E-4
3.178212664E0,-1.527161949E-4,1.069013379E-3,1.069013379E-3
3.180340164E0,-1.527161949E-4,-1.527161949E-4,-1.527161949E-4
3.182467716E0,-1.527161949E-4,1.069013379E-3,-1.527161949E-4
3.184595216E0,-1.374445739E-3,-1.527161949E-4,-1.527161949E-4
3.186722768E0,-1.374445739E-3,-1.527161949E-4,-1.527161949E-4
3.188850320E0,-1.374445739E-3,1.069013379E-3,1.069013379E-3
3.190977820E0,-1.527161949E-4,1.069013379E-3,1.069013379E-3
3.193105372E0,-1.527161949E-4,-1.527161949E-4,1.069013379E-3
3.195232924E0,-1.527161949E-4,1.069013379E-3,1.069013379E-3
3.197360424E0,-1.527161949E-4,-1.527161949E-4,1.069013379E-3
3.199487976E0,-1.527161949E-4,-1.527161949E-4,-1.527161949E-4
3.201615476E0,-1.374445739E-3,-1.527161949E-4,-1.527161949E-4
3.203743029E0,-1.374445739E-3,-1.527161949E-4,1.069013379E-3
3.205870581E0,-1.374445739E-3,-1.527161949E-4,1.069013379E-3
3.207998081E0,-1.527161949E-4,-1.527161949E-4,-1.527161949E-4
3.210125633E0,-1.527161949E-4,-1.527161949E-4,-1.527161949E-4
3.212253133E0,1.069013379E-3,1.069013379E-3,-1.527161949E-4
3.214380685E0,-1.527161949E-4,-1.527161949E-4,-1.527161949E-4
3.216508237E0,-1.527161949E-4,1.069013379E-3,-1.527161949E-4
3.218635737E0,-1.527161949E-4,-1.527161949E-4,-1.527161949E-4
3.220763289E0,-1.527161949E-4,1.069013379E-3,-1.374445739E-3
3.222890841E0,-1.374445739E-3,-1.527161949E-4,-1.527161949E-4
3.225018341E0,-1.374445739E-3,1.069013379E-3,1.069013379E-3
3.227145893E0,1.069013379E-3,-1.527161949E-4,1.069013379E-3
3.229273393E0,-1.374445739E-3,-1.527161949E-4,1.069013379E-3
3.231400945E0,1.069013379E-3,-1.374445739E-3,-1.527161949E-4
3.233528497E0,1.069013379E-3,-1.374445739E-3,1.069013379E-3
3.235655997E0,-1.527161949E-4,-1.527161949E-4,1.069013379E-3
3.237783549E0,1.069013379E-3,-1.527161949E-4,-1.527161949E-4
3.239911049E0,-1.527161949E-4,-1.527161949E-4,-1.527161949E-4
3.242038601E0,-1.527161949E-4,-1.374445739E-3,-1.527161949E-4
3.244166154E0,-1.374445739E-3,-1.527161949E-4,-1.527161949E-4
3.246293654E0,-1.527161949E-4,-1.527161949E-4,-1.527161949E-4
3.248421206E0,-1.527161949E-4,-1.527161949E-4,-1.527161949E-4
3.250548706E0,1.069013379E-3,-1.527161949E-4,-1.527161949E-4
3.252676258E0,1.069013379E-3,2.290742937E-3,-1.527161949E-4
3.254803758E0,1.069013379E-3,-1.527161949E-4,1.069013379E-3
3.256931310E0,-1.527161949E-4,-1.527161949E-4,1.069013379E-3
3.259058862E0,-1.527161949E-4,-1.527161949E-4,-1.527161949E-4
3.261186362E0,1.069013379E-3,-1.527161949E-4,-1.527161949E-4
3.263313914E0,-1.374445739E-3,-1.374445739E-3,-1.374445739E-3
3.265441466E0,-1.527161949E-4,-1.374445739E-3,-1.527161949E-4
3.267568966E0,-1.527161949E-4,-1.527161949E-4,1.069013379E-3
3.269696518E0,1.069013379E-3,-1.527161949E-4,1.069013379E-3
3.271824018E0,1.069013379E-3,-1.374445739E-3,1.069013379E-3
3.273951570E0,-1.374445739E-3,-1.527161949E-4,1.069013379E-3
3.276079122E0,-1.527161949E-4,-1.374445739E-3,-1.527161949E-4
3.278206622E0,1.069013379E-3,1.069013379E-3,-1.527161949E-4
3.280334174E0,-1.527161949E-4,-1.527161949E-4,1.069013379E-3
3.282461726E0,1.069013379E-3,-1.527161949E-4,1.069013379E-3
3.284589226E0,-1.374445739E-3,1.069013379E-3,1.069013379E-3
3.286716779E0,-3.817904973E-3,1.069013379E-3,2.290742937E-3
3.288844279E0,-1.527161949E-4,1.069013379E-3,-1.527161949E-4
3.290971831E0,-1.374445739E-3,-1.527161949E-4,-1.527161949E-4
3.293099383E0,1.069013379E-3,-1.527161949E-4,1.069013379E-3
3.295226883E0,-2.596175298E-3,1.069013379E-3,1.069013379E-3
3.297354435E0,-1.527161949E-4,1.069013379E-3,-1.527161949E-4
3.299481987E0,1.069013379E-3,-1.527161949E-4,-1.527161949E-4
3.301609487E0,-1.527161949E-4,1.069013379E-3,1.069013379E-3
3.303737039E0,1.069013379E-3,1.069013379E-3,1.069013379E-3
3.305864539E0,-1.527161949E-4,1.069013379E-3,-1.527161949E-4
3.307992091E0,1.069013379E-3,-1.374445739E-3,-1.527161949E-4
3.310119591E0,-1.527161949E-4,1.069013379E-3,1.069013379E-3
3.312247143E0,-1.374445739E-3,1.069013379E-3,1.069013379E-3
3.314374695E0,-1.527161949E-4,-1.527161949E-4,-1.374445739E-3
3.316502195E0,1.069013379E-3,-1.374445739E-3,-1.527161949E-4
3.318629747E0,-1.527161949E-4,-1.527161949E-4,1.069013379E-3
3.320757247E0,-1.527161949E-4,-1.527161949E-4,-1.527161949E-4
3.322884799E0,-1.374445739E-3,1.069013379E-3,-1.527161949E-4
3.325012351E0,-1.527161949E-4,1.069013379E-3,-1.527161949E-4
3.327139851E0,-1.527161949E-4,1.069013379E-3,-1.527161949E-4
3.329267404E0,1.069013379E-3,-1.527161949E-4,-1.527161949E-4
3.331394956E0,-1.527161949E-4,-1.527161949E-4,-1.527161949E-4
3.333522456E0,1.069013379E-3,1.069013379E-3,-1.374445739E-3
3.335650008E0,-1.374445739E-3,-1.527161949E-4,-1.527161949E-4
3.337777508E0,-1.527161949E-4,1.069013379E-3,-1.527161949E-4
3.339905060E0,-1.374445739E-3,1.069013379E-3,-1.527161949E-4
3.342032612E0,1.069013379E-3,1.069013379E-3,1.069013379E-3
3.344160112E0,-1.527161949E-4,-1.527161949E-4,-1.527161949E-4
3.346287664E0,-1.527161949E-4,-1.527161949E-4,1.069013379E-3
3.348415216E0,-1.527161949E-4,-1.527161949E-4,-1.527161949E-4
3.350542716E0,-1.527161949E-4,-1.527161949E-4,-1.374445739E-3
3.352670268E0,1.069013379E-3,-1.527161949E-4,-1.527161949E-4
3.354797768E0,-1.527161949E-4,-1.527161949E-4,1.069013379E-3
3.356925320E0,-1.374445739E-3,-1.527161949E-4,-1.527161949E-4
3.359052872E0,1.069013379E-3,-1.374445739E-3,-1.527161949E-4
3.361180372E0,-1.527161949E-4,1.069013379E-3,-1.527161949E-4
3.363307924E0,1.069013379E-3,2.290742937E-3,-1.527161949E-4
3.365435424E0,-1.374445739E-3,-1.527161949E-4,-1.374445739E-3
3.367562976E0,1.069013379E-3,-1.527161949E-4,1.069013379E-3
3.369690529E0,-1.374445739E-3,1.069013379E-3,1.069013379E-3
3.371818029E0,-1.527161949E-4,1.069013379E-3,2.290742937E-3
3.373945581E0,-1.527161949E-4,-1.527161949E-4,-1.527161949E-4
3.376073081E0,-1.527161949E-4,1.069013379E-3,-1.527161949E-4
3.378200633E0,1.069013379E-3,-1.527161949E-4,-1.527161949E-4
3.380328185E0,-1.374445739E-3,-1.374445739E-3,1.069013379E-3
3.382455685E0,-1.374445739E-3,-1.374445739E-3,-1.527161949E-4
3.384583237E0,-1.527161949E-4,1.069013379E-3,-1.527161949E-4
3.386710737E0,1.069013379E-3,1.069013379E-3,1.069013379E-3
3.388838289E0,-1.527161949E-4,1.069013379E-3,-1.527161949E-4
3.390965841E0,-1.374445739E-3,-1.527161949E-4,-1.527161949E-4
3.393093341E0,1.069013379E-3,1.069013379E-3,1.069013379E-3
3.395220893E0,-1.527161949E-4,1.069013379E-3,-1.527161949E-4
3.397348393E0,-1.374445739E-3,-1.527161949E-4,1.069013379E-3
3.399475945E0,-1.527161949E-4,1.069013379E-3,1.069013379E-3
3.401603497E0,-1.527161949E-4,2.290742937E-3,-1.527161949E-4
3.403730997E0,-1.374445739E-3,-1.374445739E-3,-1.527161949E-4
3.405858549E0,-1.527161949E-4,-1.527161949E-4,-1.527161949E-4
3.407986101E0,-1.527161949E-4,-1.527161949E-4,-1.527161949E-4
3.410113601E0,-1.527161949E-4,-1.527161949E-4,-1.527161949E-4
3.412241154E0,-1.374445739E-3,1.069013379E-3,-1.527161949E-4
3.414368654E0,-1.374445739E-3,-1.527161949E-4,-1.527161949E-4
3.416496206E0,-1.527161949E-4,-1.374445739E-3,-1.374445739E-3
3.418623758E0,-1.374445739E-3,1.069013379E-3,-1.527161949E-4
3.420751258E0,-1.527161949E-4,-1.527161949E-4,1.069013379E-3
3.422878810E0,-1.527161949E-4,-1.527161949E-4,-1.527161949E-4
3.425006310E0,-1.527161949E-4,-1.527161949E-4,-1.527161949E-4
3.427133862E0,1.069013379E-3,-1.527161949E-4,-1.527161949E-4
3.429261414E0,-1.527161949E-4,-1.527161949E-4,-1.527161949E-4
3.431388914E0,1.069013379E-3,-1.527161949E-4,-1.527161949E-4
3.433516466E0,-1.527161949E-4,-1.527161949E-4,-1.527161949E-4
3.435643966E0,-1.527161949E-4,-1.374445739E-3,1.069013379E-3
3.437771518E0,1.069013379E-3,-1.527161949E-4,-1.527161949E-4
3.439899070E0,-1.527161949E-4,-1.527161949E-4,-1.527161949E-4
3.442026570E0,-1.527161949E-4,-1.374445739E-3,-1.374445739E-3
3.444154122E0,-1.527161949E-4,-1.527161949E-4,-1.527161949E-4
3.446281622E0,-1.527161949E-4,-1.527161949E-4,-1.527161949E-4
3.448409174E0,-1.374445739E-3,1.069013379E-3,1.069013379E-3
3.450536726E0,1.069013379E-3,-1.527161949E-4,1.069013379E-3
3.452664226E0,-1.527161949E-4,-1.374445739E-3,-1.527161949E-4
3.454791779E0,1.069013379E-3,-1.527161949E-4,-1.527161949E-4
3.456919331E0,1.069013379E-3,-1.527161949E-4,1.069013379E-3
3.459046831E0,-1.527161949E-4,-1.527161949E-4,-1.527161949E-4
3.461174383E0,1.069013379E-3,-1.374445739E-3,-1.527161949E-4
3.463301883E0,-1.374445739E-3,-2.596175298E-3,-1.527161949E-4
3.465429435E0,-1.527161949E-4,-1.527161949E-4,-1.527161949E-4
3.467556987E0,-1.527161949E-4,-1.527161949E-4,-1.527161949E-4
3.469684487E0,-1.527161949E-4,-1.374445739E-3,1.069013379E-3
3.471812039E0,1.069013379E-3,-1.527161949E-4,-1.527161949E-4
3.473939539E0,-1.527161949E-4,-1.527161949E-4,1.069013379E-3
3.476067091E0,-1.527161949E-4,-1.527161949E-4,-1.527161949E-4
3.478194643E0,-1.527161949E-4,-1.527161949E-4,-1.527161949E-4
3.480322143E0,-1.374445739E-3,1.069013379E-3,1.069013379E-3
3.482449695E0,-1.527161949E-4,-1.527161949E-4,-1.527161949E-4
3.484577195E0,-1.374445739E-3,-1.374445739E-3,-1.527161949E-4
3.486704747E0,1.069013379E-3,-1.527161949E-4,1.069013379E-3
3.488832299E0,1.069013379E-3,-1.527161949E-4,-1.374445739E-3
3.490959799E0,-1.527161949E-4,-1.527161949E-4,-1.527161949E-4
3.493087351E0,-1.527161949E-4,-1.527161949E-4,1.069013379E-3
3.495214851E0,-1.374445739E-3,1.069013379E-3,-1.527161949E-4
3.497342404E0,-1.374445739E-3,-1.374445739E-3,1.069013379E-3
3.499469956E0,-1.374445739E-3,-1.374445739E-3,1.069013379E-3
3.501597456E0,-1.527161949E-4,-1.527161949E-4,-1.527161949E-4
3.503725008E0,1.069013379E-3,1.069013379E-3,-1.527161949E-4
3.505852508E0,-2.596175298E-3,1.069013379E-3,-1.374445739E-3
3.507980060E0,-1.527161949E-4,-1.527161949E-4,-1.527161949E-4
3.510107612E0,-1.527161949E-4,-1.527161949E-4,-1.527161949E-4
3.512235112E0,-1.527161949E-4,-1.527161949E-4,-1.527161949E-4
3.514362664E0,1.069013379E-3,-2.596175298E-3,-1.527161949E-4
3.516490164E0,-1.527161949E-4,1.069013379E-3,-1.527161949E-4
3.518617716E0,-1.527161949E-4,1.069013379E-3,-1.527161949E-4
3.520745268E0,-1.527161949E-4,1.069013379E-3,-1.527161949E-4
3.522872768E0,-1.374445739E-3,1.069013379E-3,1.069013379E-3
3.525000320E0,-1.374445739E-3,1.069013379E-3,-1.527161949E-4
3.527127872E0,-1.527161949E-4,1.069013379E-3,-1.374445739E-3
3.529255372E0,-1.374445739E-3,2.290742937E-3,-1.374445739E-3
3.531382924E0,-1.527161949E-4,1.069013379E-3,-1.374445739E-3
3.533510424E0,-2.596175298E-3,1.069013379E-3,-1.527161949E-4
3.535637976E0,-1.527161949E-4,-1.527161949E-4,2.290742937E-3
3.537765529E0,-1.527161949E-4,1.069013379E-3,-1.527161949E-4
3.539893029E0,-1.527161949E-4,-1.527161949E-4,1.069013379E-3
3.542020581E0,1.069013379E-3,1.069013379E-3,-1.527161949E-4
3.544148081E0,-1.374445739E-3,-1.527161949E-4,-1.527161949E-4
3.546275633E0,-1.527161949E-4,-1.374445739E-3,-1.527161949E-4
3.548403185E0,-1.374445739E-3,-1.527161949E-4,-1.527161949E-4
3.550530685E0,-1.374445739E-3,-1.527161949E-4,-1.374445739E-3
3.552658237E0,2.290742937E-3,-1.527161949E-4,-1.527161949E-4
3.554785737E0,-1.374445739E-3,1.069013379E-3,-1.527161949E-4
3.556913289E0,-1.374445739E-3,-1.527161949E-4,1.069013379E-3
3.559040841E0,-1.527161949E-4,1.069013379E-3,1.069013379E-3
3.561168341E0,1.069013379E-3,-1.527161949E-4,1.069013379E-3
3.563295893E0,-1.527161949E-4,-1.527161949E-4,-1.527161949E-4
3.565423393E0,1.069013379E-3,-1.527161949E-4,-1.527161949E-4
3.567550945E0,-1.527161949E-4,-1.527161949E-4,1.069013379E-3
3.569678497E0,1.069013379E-3,-1.527161949E-4,-1.374445739E-3
3.571805997E0,-1.374445739E-3,-1.527161949E-4,-1.527161949E-4
3.573933549E0,1.069013379E-3,-1.527161949E-4,2.290742937E-3
3.576061101E0,-1.374445739E-3,-1.374445739E-3,1.069013379E-3
3.578188601E0,-1.527161949E-4,-1.527161949E-4,-1.527161949E-4
3.580316154E0,-1.374445739E-3,-1.527161949E-4,1.069013379E-3
3.582443654E0,-1.527161949E-4,-1.527161949E-4,1.069013379E-3
3.584571206E0,-1.527161949E-4,-2.596175298E-3,-1.527161949E-4
3.586698758E0,-1.374445739E-3,-1.527161949E-4,1.069013379E-3
3.588826258E0,-1.527161949E-4,1.069013379E-3,-1.527161949E-4
3.590953810E0,-1.527161949E-4,-1.527161949E-4,-1.527161949E-4
3.593081362E0,-2.596175298E-3,1.069013379E-3,1.069013379E-3
3.595208862E0,-1.527161949E-4,1.069013379E-3,1.069013379E-3
3.597336414E0,1.069013379E-3,-1.527161949E-4,-1.527161949E-4
3.599463914E0,-1.527161949E-4,-1.527161949E-4,-1.527161949E-4
3.601591466E0,-1.374445739E-3,1.069013379E-3,1.069013379E-3
3.603719018E0,1.069013379E-3,-1.527161949E-4,-1.527161949E-4
3.605846518E0,-1.527161949E-4,1.069013379E-3,1.069013379E-3
3.607974070E0,1.069013379E-3,-1.527161949E-4,-1.527161949E-4
3.610101570E0,-1.374445739E-3,-1.527161949E-4,-1.527161949E-4
3.612229122E0,-1.374445739E-3,-1.527161949E-4,1.069013379E-3
3.614356622E0,-1.527161949E-4,-1.374445739E-3,1.069013379E-3
3.616484174E0,-1.527161949E-4,-1.374445739E-3,1.069013379E-3
3.618611726E0,-1.374445739E-3,-1.527161949E-4,-1.527161949E-4
3.620739226E0,-1.527161949E-4,1.069013379E-3,-1.527161949E-4
3.622866779E0,1.069013379E-3,1.069013379E-3,-1.527161949E-4
3.624994279E0,-1.527161949E-4,-1.527161949E-4,1.069013379E-3
3.627121831E0,-1.527161949E-4,-1.527161949E-4,1.069013379E-3
3.629249383E0,2.290742937E-3,-1.374445739E-3,-1.527161949E-4
3.631376883E0,1.069013379E-3,-1.527161949E-4,-1.374445739E-3
3.633504435E0,1.069013379E-3,-1.527161949E-4,-1.527161949E-4
3.635631987E0,1.069013379E-3,-1.374445739E-3,-1.374445739E-3
3.637759487E0,-1.527161949E-4,-1.527161949E-4,-1.527161949E-4
3.639887039E0,1.069013379E-3,1.069013379E-3,-1.527161949E-4
3.642014539E0,-1.527161949E-4,-1.374445739E-3,-1.527161949E-4
3.644142091E0,-1.527161949E-4,-1.374445739E-3,1.069013379E-3
3.646269643E0,1.069013379E-3,1.069013379E-3,-1.527161949E-4
3.648397143E0,-1.527161949E-4,1.069013379E-3,1.069013379E-3
3.650524695E0,-1.527161949E-4,-1.527161949E-4,-1.527161949E-4
3.652652195E0,-3.817904973E-3,1.069013379E-3,1.069013379E-3
3.654779747E0,-1.527161949E-4,1.069013379E-3,1.069013379E-3
3.656907299E0,-1.527161949E-4,-1.527161949E-4,1.069013379E-3
3.659034799E0,-1.527161949E-4,-1.527161949E-4,-1.527161949E-4
3.661162351E0,-1.527161949E-4,1.069013379E-3,1.069013379E-3
3.663289851E0,-1.374445739E-3,-1.374445739E-3,-1.527161949E-4
3.665417404E0,-1.527161949E-4,-1.527161949E-4,-1.527161949E-4
3.667544956E0,-1.374445739E-3,-1.374445739E-3,2.290742937E-3
3.669672456E0,-1.374445739E-3,-1.527161949E-4,-1.527161949E-4
3.671800008E0,-1.527161949E-4,-1.527161949E-4,-1.527161949E-4
3.673927508E0,-1.527161949E-4,1.069013379E-3,-1.374445739E-3
3.676055060E0,-1.374445739E-3,-1.527161949E-4,-1.527161949E-4
3.678182560E0,-2.596175298E-3,-1.527161949E-4,-1.527161949E-4
3.680310164E0,-1.374445739E-3,1.069013379E-3,1.069013379E-3
3.682437664E0,-1.374445739E-3,1.069013379E-3,1.069013379E-3
3.684565164E0,-1.374445739E-3,1.069013379E-3,1.069013379E-3
3.686692716E0,-1.527161949E-4,-1.527161949E-4,2.290742937E-3
3.688820268E0,-1.374445739E-3,1.069013379E-3,1.069013379E-3
3.690947768E0,1.069013379E-3,-1.527161949E-4,1.069013379E-3
3.693075320E0,-1.527161949E-4,1.069013379E-3,1.069013379E-3
3.695202820E0,-1.374445739E-3,1.069013379E-3,-1.527161949E-4
3.697330372E0,-1.527161949E-4,1.069013379E-3,-1.527161949E-4
3.699457924E0,-1.374445739E-3,1.069013379E-3,-1.527161949E-4
3.701585424E0,-1.527161949E-4,-1.374445739E-3,-1.527161949E-4
3.703712976E0,-1.527161949E-4,1.069013379E-3,1.069013379E-3
3.705840529E0,-1.374445739E-3,1.069013379E-3,1.069013379E-3
3.707968029E0,-1.527161949E-4,-1.374445739E-3,1.069013379E-3
3.710095581E0,-1.527161949E-4,-1.527161949E-4,1.069013379E-3
3.712223081E0,-1.527161949E-4,-1.374445739E-3,1.069013379E-3
3.714350633E0,-1.374445739E-3,-1.527161949E-4,-1.527161949E-4
3.716478185E0,-1.527161949E-4,-1.527161949E-4,-1.527161949E-4
3.718605685E0,1.069013379E-3,1.069013379E-3,1.069013379E-3
3.720733237E0,-1.374445739E-3,-1.527161949E-4,-1.527161949E-4
3.722860789E0,-1.527161949E-4,-1.527161949E-4,-1.527161949E-4
3.724988289E0,1.069013379E-3,-1.527161949E-4,1.069013379E-3
3.727115841E0,-1.374445739E-3,-1.374445739E-3,-1.527161949E-4
3.729243341E0,-1.374445739E-3,2.290742937E-3,1.069013379E-3
3.731370893E0,-1.527161949E-4,-1.527161949E-4,-1.527161949E-4
3.733498393E0,-1.374445739E-3,-1.374445739E-3,-1.374445739E-3
3.735625945E0,-1.527161949E-4,-1.527161949E-4,-1.527161949E-4
3.737753497E0,-1.527161949E-4,-1.527161949E-4,-1.374445739E-3
3.739880997E0,1.069013379E-3,2.290742937E-3,-1.527161949E-4
3.742008549E0,-1.374445739E-3,1.069013379E-3,2.290742937E-3
3.744136049E0,-1.374445739E-3,-1.527161949E-4,-1.527161949E-4
3.746263601E0,1.069013379E-3,-1.374445739E-3,-1.527161949E-4
3.748391101E0,-1.374445739E-3,-1.374445739E-3,-1.527161949E-4
3.750518654E0,-1.374445739E-3,-1.374445739E-3,1.069013379E-3
3.752646206E0,-1.374445739E-3,-1.374445739E-3,1.069013379E-3
3.754773706E0,1.069013379E-3,-1.527161949E-4,1.069013379E-3
3.756901258E0,1.069013379E-3,1.069013379E-3,-1.527161949E-4
3.759028810E0,-1.527161949E-4,-1.527161949E-4,-1.527161949E-4
3.761156310E0,1.069013379E-3,1.069013379E-3,-1.527161949E-4
3.763283862E0,-1.374445739E-3,-1.527161949E-4,-1.527161949E-4
3.765411362E0,-1.374445739E-3,-1.527161949E-4,-1.527161949E-4
3.767538914E0,-1.527161949E-4,-1.527161949E-4,-1.527161949E-4
3.769666466E0,-1.527161949E-4,-1.527161949E-4,1.069013379E-3
3.771793966E0,1.069013379E-3,-1.527161949E-4,-1.527161949E-4
3.773921518E0,-1.374445739E-3,1.069013379E-3,1.069013379E-3
3.776049070E0,-1.374445739E-3,1.069013379E-3,1.069013379E-3
3.778176570E0,1.069013379E-3,1.069013379E-3,-1.527161949E-4
3.780304122E0,-1.374445739E-3,-1.527161949E-4,1.069013379E-3
3.782431622E0,-1.374445739E-3,-1.527161949E-4,1.069013379E-3
3.784559174E0,1.069013379E-3,-1.527161949E-4,-1.527161949E-4
3.786686674E0,-1.527161949E-4,-1.374445739E-3,-1.527161949E-4
3.788814226E0,-1.527161949E-4,-1.527161949E-4,-1.527161949E-4
3.790941779E0,-1.374445739E-3,-1.527161949E-4,1.069013379E-3
3.793069331E0,-1.527161949E-4,1.069013379E-3,-1.527161949E-4
3.795196831E0,-1.527161949E-4,-1.527161949E-4,1.069013379E-3
3.797324383E0,-1.527161949E-4,-1.527161949E-4,1.069013379E-3
3.799451883E0,-1.527161949E-4,-1.527161949E-4,-1.527161949E-4
3.801579435E0,1.069013379E-3,-1.374445739E-3,-1.374445739E-3
3.803706987E0,-1.527161949E-4,-1.527161949E-4,1.069013379E-3
3.805834487E0,-1.527161949E-4,1.069013379E-3,-1.527161949E-4
3.807962039E0,-1.374445739E-3,-1.527161949E-4,1.069013379E-3
3.810089539E0,-1.527161949E-4,-1.374445739E-3,-1.527161949E-4
3.812217091E0,1.069013379E-3,-1.527161949E-4,-1.527161949E-4
3.814344591E0,1.069013379E-3,-1.527161949E-4,-1.374445739E-3
3.816472143E0,-1.374445739E-3,1.069013379E-3,-1.527161949E-4
3.818599695E0,1.069013379E-3,-1.527161949E-4,-1.527161949E-4
3.820727195E0,-1.527161949E-4,-1.527161949E-4,-1.527161949E-4
3.822854747E0,1.069013379E-3,-1.527161949E-4,-1.527161949E-4
3.824982299E0,-1.527161949E-4,1.069013379E-3,-1.527161949E-4
3.827109799E0,-1.527161949E-4,1.069013379E-3,1.069013379E-3
3.829237351E0,-1.527161949E-4,-1.527161949E-4,1.069013379E-3
3.831364851E0,-1.527161949E-4,1.069013379E-3,-1.527161949E-4
3.833492404E0,-1.374445739E-3,-2.596175298E-3,-1.527161949E-4
3.835619904E0,-1.527161949E-4,-1.374445739E-3,-1.527161949E-4
3.837747456E0,1.069013379E-3,-1.527161949E-4,-1.527161949E-4
3.839875008E0,-1.527161949E-4,-1.527161949E-4,-1.527161949E-4
3.842002508E0,-1.527161949E-4,-1.374445739E-3,1.069013379E-3
3.844130060E0,-1.527161949E-4,-1.374445739E-3,1.069013379E-3
3.846257560E0,-1.527161949E-4,-1.527161949E-4,1.069013379E-3
3.848385112E0,-1.527161949E-4,-1.527161949E-4,-1.527161949E-4
3.850512664E0,2.290742937E-3,-1.374445739E-3,-1.527161949E-4
3.852640164E0,-1.527161949E-4,-1.374445739E-3,1.069013379E-3
3.854767716E0,-1.527161949E-4,-1.527161949E-4,-1.527161949E-4
3.856895216E0,-1.374445739E-3,-1.374445739E-3,-1.374445739E-3
3.859022768E0,-1.527161949E-4,-1.527161949E-4,-1.527161949E-4
3.861150320E0,-1.527161949E-4,1.069013379E-3,-1.527161949E-4
3.863277820E0,-1.527161949E-4,1.069013379E-3,-1.527161949E-4
3.865405372E0,-1.527161949E-4,-1.527161949E-4,-1.527161949E-4
3.867532872E0,-1.374445739E-3,1.069013379E-3,-1.527161949E-4
3.869660424E0,-1.374445739E-3,1.069013379E-3,1.069013379E-3
3.871787976E0,-1.527161949E-4,1.069013379E-3,-1.527161949E-4
3.873915476E0,-1.527161949E-4,-1.527161949E-4,-1.527161949E-4
3.876043029E0,-1.374445739E-3,-1.527161949E-4,-1.527161949E-4
3.878170529E0,1.069013379E-3,1.069013379E-3,-1.527161949E-4
3.880298081E0,1.069013379E-3,-1.527161949E-4,1.069013379E-3
3.882425633E0,-1.374445739E-3,1.069013379E-3,2.290742937E-3
3.884553133E0,-1.527161949E-4,-1.527161949E-4,1.069013379E-3
3.886680685E0,-1.527161949E-4,1.069013379E-3,1.069013379E-3
3.888808237E0,2.290742937E-3,-1.527161949E-4,-1.527161949E-4
3.890935737E0,-1.527161949E-4,2.290742937E-3,1.069013379E-3
3.893063289E0,-1.527161949E-4,2.290742937E-3,1.069013379E-3
3.895190789E0,-1.527161949E-4,-1.527161949E-4,1.069013379E-3
3.897318341E0,-1.527161949E-4,-1.527161949E-4,-1.527161949E-4
3.899445841E0,-1.374445739E-3,-1.527161949E-4,-1.527161949E-4
3.901573393E0,-1.374445739E-3,-1.527161949E-4,-1.527161949E-4
3.903700945E0,-1.374445739E-3,2.290742937E-3,-1.527161949E-4
3.905828445E0,-1.527161949E-4,-1.527161949E-4,-1.527161949E-4
3.907955997E0,-2.596175298E-3,-1.527161949E-4,1.069013379E-3
3.910083549E0,-1.527161949E-4,-1.374445739E-3,1.069013379E-3
3.912211049E0,-1.527161949E-4,1.069013379E-3,-1.527161949E-4
3.914338601E0,-1.527161949E-4,1.069013379E-3,1.069013379E-3
3.916466101E0,-1.527161949E-4,-1.527161949E-4,-1.527161949E-4
3.918593654E0,1.069013379E-3,-1.527161949E-4,1.069013379E-3
3.920721206E0,1.069013379E-3,-1.527161949E-4,1.069013379E-3
3.922848706E0,-2.596175298E-3,-1.527161949E-4,-1.527161949E-4
3.924976258E0,1.069013379E-3,-1.527161949E-4,-1.527161949E-4
3.927103758E0,-1.527161949E-4,-1.527161949E-4,-1.527161949E-4
3.929231310E0,-1.527161949E-4,-1.527161949E-4,-1.527161949E-4
3.931358862E0,1.069013379E-3,-1.527161949E-4,-1.527161949E-4
3.933486362E0,-1.527161949E-4,-1.527161949E-4,-1.527161949E-4
3.935613914E0,-1.527161949E-4,-1.527161949E-4,1.069013379E-3
3.937741414E0,-1.374445739E-3,-1.527161949E-4,-1.527161949E-4
3.939868966E0,-1.527161949E-4,1.069013379E-3,1.069013379E-3
3.941996518E0,2.290742937E-3,-1.374445739E-3,-1.527161949E-4
3.944124018E0,1.069013379E-3,-1.527161949E-4,-1.527161949E-4
3.946251570E0,-1.527161949E-4,1.069013379E-3,1.069013379E-3
3.948379122E0,2.290742937E-3,-1.527161949E-4,-1.374445739E-3
3.950506622E0,1.069013379E-3,-1.527161949E-4,-1.527161949E-4
3.952634174E0,1.069013379E-3,-1.527161949E-4,1.069013379E-3
3.954761674E0,1.069013379E-3,1.069013379E-3,-1.527161949E-4
3.956889226E0,-1.374445739E-3,-1.527161949E-4,-1.374445739E-3
3.959016726E0,1.069013379E-3,1.069013379E-3,-1.374445739E-3
3.961144279E0,-1.527161949E-4,-1.374445739E-3,-1.527161949E-4
3.963271831E0,-1.527161949E-4,-1.527161949E-4,1.069013379E-3
3.965399331E0,1.069013379E-3,-1.527161949E-4,1.069013379E-3
3.967526883E0,1.069013379E-3,-1.374445739E-3,1.069013379E-3
3.969654435E0,-1.374445739E-3,-1.374445739E-3,-1.527161949E-4
3.971781935E0,-1.527161949E-4,1.069013379E-3,1.069013379E-3
3.973909487E0,1.069013379E-3,-1.374445739E-3,-1.527161949E-4
3.976036987E0,-1.527161949E-4,-1.374445739E-3,1.069013379E-3
3.978164539E0,1.069013379E-3,-1.527161949E-4,-1.527161949E-4
3.980292039E0,-1.374445739E-3,1.069013379E-3,-1.374445739E-3
3.982419591E0,-1.527161949E-4,1.069013379E-3,1.069013379E-3
3.984547143E0,-1.374445739E-3,-1.527161949E-4,-1.527161949E-4
3.986674643E0,-1.527161949E-4,1.069013379E-3,1.069013379E-3
3.988802195E0,-1.374445739E-3,-1.527161949E-4,-1.527161949E-4
3.990929695E0,-1.374445739E-3,-1.374445739E-3,1.069013379E-3
3.993057247E0,-1.374445739E-3,-1.527161949E-4,-1.527161949E-4
3.995184799E0,-1.527161949E-4,1.069013379E-3,-1.527161949E-4
3.997312299E0,-1.527161949E-4,-1.527161949E-4,-1.527161949E-4
3.999439851E0,-1.374445739E-3,-1.527161949E-4,-1.527161949E-4
4.001567351E0,-1.527161949E-4,-1.527161949E-4,2.290742937E-3
4.003694904E0,1.069013379E-3,-1.527161949E-4,-1.527161949E-4
4.005822456E0,-1.527161949E-4,-1.374445739E-3,1.069013379E-3
4.007949956E0,-1.527161949E-4,-1.527161949E-4,-1.527161949E-4
4.010077508E0,-1.374445739E-3,1.069013379E-3,1.069013379E-3
4.012205060E0,-1.374445739E-3,-1.527161949E-4,-1.527161949E-4
4.014332560E0,1.069013379E-3,-1.527161949E-4,1.069013379E-3
4.016460112E0,-1.374445739E-3,-1.527161949E-4,1.069013379E-3
4.018587612E0,-1.527161949E-4,-1.527161949E-4,1.069013379E-3
4.020715164E0,-1.527161949E-4,-1.527161949E-4,-1.527161949E-4
4.022842716E0,-1.374445739E-3,-1.527161949E-4,-1.527161949E-4
4.024970216E0,-1.374445739E-3,1.069013379E-3,1.069013379E-3
4.027097768E0,-1.374445739E-3,-1.527161949E-4,-1.527161949E-4
4.029225268E0,-1.527161949E-4,-1.527161949E-4,-1.527161949E-4
4.031352820E0,-1.374445739E-3,1.069013379E-3,-1.527161949E-4
4.033480372E0,-1.527161949E-4,-1.527161949E-4,-1.527161949E-4
4.035607872E0,-1.527161949E-4,1.069013379E-3,1.069013379E-3
4.037735424E0,-1.527161949E-4,-1.527161949E-4,-1.527161949E-4
4.039862924E0,1.069013379E-3,-1.527161949E-4,-1.527161949E-4
4.041990476E0,1.069013379E-3,-1.527161949E-4,1.069013379E-3
4.044118029E0,-1.374445739E-3,2.290742937E-3,1.069013379E-3
4.046245529E0,1.069013379E-3,1.069013379E-3,-1.527161949E-4
4.048373081E0,-1.374445739E-3,-1.527161949E-4,-1.527161949E-4
4.050500581E0,-1.374445739E-3,1.069013379E-3,1.069013379E-3
4.052628133E0,-1.527161949E-4,1.069013379E-3,1.069013379E-3
4.054755685E0,-1.527161949E-4,1.069013379E-3,1.069013379E-3
4.056883185E0,-1.374445739E-3,1.069013379E-3,1.069013379E-3
4.059010737E0,-1.527161949E-4,-1.527161949E-4,-1.527161949E-4
4.061138237E0,-1.527161949E-4,-1.527161949E-4,-1.527161949E-4
4.063265789E0,-1.527161949E-4,-1.527161949E-4,1.069013379E-3
4.065393341E0,-1.527161949E-4,-1.527161949E-4,-1.527161949E-4
4.067520841E0,-1.527161949E-4,-1.527161949E-4,1.069013379E-3
4.069648393E0,-1.527161949E-4,-1.527161949E-4,1.069013379E-3
4.071775893E0,-1.527161949E-4,-1.527161949E-4,1.069013379E-3
4.073903445E0,-1.527161949E-4,1.069013379E-3,1.069013379E-3
4.076030997E0,-1.527161949E-4,-1.527161949E-4,1.069013379E-3
4.078158497E0,-1.374445739E-3,-1.527161949E-4,-1.527161949E-4
4.080286049E0,-1.527161949E-4,-1.527161949E-4,-1.527161949E-4
4.082413549E0,-1.374445739E-3,-1.374445739E-3,-1.527161949E-4
4.084541101E0,-1.527161949E-4,-1.527161949E-4,-1.527161949E-4
4.086668654E0,-1.527161949E-4,-1.527161949E-4,-1.527161949E-4
4.088796154E0,1.069013379E-3,-1.527161949E-4,1.069013379E-3
4.090923706E0,-1.374445739E-3,-1.527161949E-4,-1.374445739E-3
4.093051206E0,-1.374445739E-3,-1.527161949E-4,1.069013379E-3
4.095178758E0,-1.374445739E-3,1.069013379E-3,1.069013379E-3
4.097306310E0,-1.527161949E-4,1.069013379E-3,1.069013379E-3
4.099433810E0,-1.527161949E-4,1.069013379E-3,-1.527161949E-4
4.101561362E0,-1.527161949E-4,-1.527161949E-4,1.069013379E-3
4.103688862E0,-1.527161949E-4,-1.527161949E-4,1.069013379E-3
4.105816414E0,1.069013379E-3,-1.527161949E-4,-1.527161949E-4
4.107943966E0,1.069013379E-3,-1.527161949E-4,-1.527161949E-4
4.110071466E0,-1.527161949E-4,-1.527161949E-4,-1.374445739E-3
4.112199018E0,1.069013379E-3,-1.527161949E-4,-1.527161949E-4
4.114326518E0,-1.527161949E-4,1.069013379E-3,-1.527161949E-4
4.116454070E0,-1.527161949E-4,-1.527161949E-4,-1.527161949E-4
4.118581622E0,-1.527161949E-4,1.069013379E-3,-1.527161949E-4
4.120709122E0,-1.527161949E-4,1.069013379E-3,2.290742937E-3
4.122836674E0,1.069013379E-3,-1.527161949E-4,-1.527161949E-4
4.124964174E0,-1.374445739E-3,-1.374445739E-3,1.069013379E-3
4.127091726E0,-1.527161949E-4,-1.527161949E-4,-1.527161949E-4
4.129219279E0,-1.527161949E-4,-1.527161949E-4,-1.527161949E-4
4.131346779E0,1.069013379E-3,-1.374445739E-3,1.069013379E-3
4.133474331E0,-1.527161949E-4,-1.374445739E-3,-1.527161949E-4
4.135601831E0,1.069013379E-3,-1.527161949E-4,-1.527161949E-4
4.137729383E0,-1.527161949E-4,-1.527161949E-4,1.069013379E-3
4.139856935E0,-1.374445739E-3,-1.527161949E-4,1.069013379E-3
4.141984435E0,-1.527161949E-4,1.069013379E-3,-1.527161949E-4
4.144111987E0,1.069013379E-3,-1.527161949E-4,1.069013379E-3
4.146239487E0,-1.374445739E-3,1.069013379E-3,-1.527161949E-4
4.148367039E0,-1.527161949E-4,-1.527161949E-4,1.069013379E-3
4.150494591E0,-1.374445739E-3,1.069013379E-3,-1.527161949E-4
4.152622091E0,-1.527161949E-4,1.069013379E-3,1.069013379E-3
4.154749643E0,-1.527161949E-4,-1.374445739E-3,-1.374445739E-3
4.156877143E0,-1.527161949E-4,-1.527161949E-4,-1.527161949E-4
4.159004695E0,-1.527161949E-4,-1.527161949E-4,1.069013379E-3
4.161132247E0,-1.527161949E-4,1.069013379E-3,1.069013379E-3
4.163259747E0,1.069013379E-3,-1.527161949E-4,-1.527161949E-4
4.165387299E0,-1.527161949E-4,-1.527161949E-4,-1.527161949E-4
4.167514799E0,-1.527161949E-4,-1.527161949E-4,-1.527161949E-4
4.169642351E0,-1.374445739E-3,1.069013379E-3,-1.527161949E-4
4.171769904E0,-1.527161949E-4,1.069013379E-3,-1.527161949E-4
4.173897404E0,-1.374445739E-3,-1.527161949E-4,1.069013379E-3
4.176024956E0,1.069013379E-3,-1.527161949E-4,-1.527161949E-4
